condition	 subNum	 trialNo	 fixNo	 xFix	 xFixFlip	 yFix	 targSide	 easySide	 accuracy	 RT
tex	 1	 17	 1	 948	 -12	 553	 hard	 right	 1	 1.401
tex	 1	 17	 2	 862	 -98	 561	 hard	 right	 1	 1.401
tex	 1	 17	 3	 613	 -347	 488	 hard	 right	 1	 1.401
tex	 1	 17	 4	 617	 -343	 433	 hard	 right	 1	 1.401
tex	 1	 18	 1	 959	 -1	 553	 hard	 right	 1	 2.495
tex	 1	 18	 2	 835	 -125	 530	 hard	 right	 1	 2.495
tex	 1	 18	 3	 521	 -439	 582	 hard	 right	 1	 2.495
tex	 1	 18	 4	 803	 -157	 636	 hard	 right	 1	 2.495
tex	 1	 18	 5	 873	 -87	 741	 hard	 right	 1	 2.495
tex	 1	 18	 6	 766	 -194	 695	 hard	 right	 1	 2.495
tex	 1	 18	 7	 853	 -107	 705	 hard	 right	 1	 2.495
tex	 1	 18	 8	 832	 -128	 763	 hard	 right	 1	 2.495
tex	 1	 18	 9	 779	 -181	 749	 hard	 right	 1	 2.495
tex	 1	 19	 1	 940	 -20	 550	 easy	 right	 1	 0.892
tex	 1	 19	 2	 898	 -62	 573	 easy	 right	 1	 0.892
tex	 1	 19	 3	 1202	 242	 325	 easy	 right	 1	 0.892
tex	 1	 19	 4	 1219	 259	 302	 easy	 right	 1	 0.892
tex	 1	 20	 1	 962	 2	 533	 hard	 right	 1	 2.508
tex	 1	 20	 2	 896	 -64	 552	 hard	 right	 1	 2.508
tex	 1	 20	 3	 1085	 125	 408	 hard	 right	 1	 2.508
tex	 1	 20	 4	 977	 17	 426	 hard	 right	 1	 2.508
tex	 1	 20	 5	 1195	 235	 500	 hard	 right	 1	 2.508
tex	 1	 20	 6	 819	 -141	 647	 hard	 right	 1	 2.508
tex	 1	 20	 7	 681	 -279	 688	 hard	 right	 1	 2.508
tex	 1	 20	 8	 554	 -406	 493	 hard	 right	 1	 2.508
tex	 1	 20	 9	 736	 -224	 709	 hard	 right	 1	 2.508
tex	 1	 20	 10	 519	 -441	 553	 hard	 right	 1	 2.508
tex	 1	 20	 11	 516	 -444	 611	 hard	 right	 1	 2.508
tex	 1	 20	 12	 522	 -438	 589	 hard	 right	 1	 2.508
tex	 1	 21	 1	 950	 -10	 559	 hard	 right	 1	 2.017
tex	 1	 21	 2	 858	 -102	 535	 hard	 right	 1	 2.017
tex	 1	 21	 3	 898	 -62	 595	 hard	 right	 1	 2.017
tex	 1	 21	 4	 942	 -18	 461	 hard	 right	 1	 2.017
tex	 1	 21	 5	 523	 -437	 399	 hard	 right	 1	 2.017
tex	 1	 21	 6	 635	 -325	 602	 hard	 right	 1	 2.017
tex	 1	 21	 7	 584	 -376	 682	 hard	 right	 1	 2.017
tex	 1	 21	 8	 522	 -438	 735	 hard	 right	 1	 2.017
tex	 1	 21	 9	 519	 -441	 721	 hard	 right	 1	 2.017
tex	 1	 22	 1	 942	 18	 542	 easy	 left	 1	 0.664
tex	 1	 22	 2	 872	 88	 627	 easy	 left	 1	 0.664
tex	 1	 22	 3	 882	 78	 625	 easy	 left	 1	 0.664
tex	 1	 23	 1	 943	 17	 544	 hard	 left	 1	 4.110
tex	 1	 23	 2	 1133	 -173	 618	 hard	 left	 1	 4.110
tex	 1	 23	 3	 1086	 -126	 343	 hard	 left	 1	 4.110
tex	 1	 23	 4	 1243	 -283	 617	 hard	 left	 1	 4.110
tex	 1	 23	 5	 1075	 -115	 814	 hard	 left	 1	 4.110
tex	 1	 23	 6	 541	 419	 801	 hard	 left	 1	 4.110
tex	 1	 23	 7	 1103	 -143	 789	 hard	 left	 1	 4.110
tex	 1	 23	 8	 1065	 -105	 757	 hard	 left	 1	 4.110
tex	 1	 23	 9	 1045	 -85	 837	 hard	 left	 1	 4.110
tex	 1	 23	 10	 1287	 -327	 912	 hard	 left	 1	 4.110
tex	 1	 23	 11	 1116	 -156	 527	 hard	 left	 1	 4.110
tex	 1	 23	 12	 1067	 -107	 547	 hard	 left	 1	 4.110
tex	 1	 23	 13	 1392	 -432	 239	 hard	 left	 1	 4.110
tex	 1	 23	 14	 1285	 -325	 282	 hard	 left	 1	 4.110
tex	 1	 23	 15	 1048	 -88	 310	 hard	 left	 1	 4.110
tex	 1	 23	 16	 987	 -27	 359	 hard	 left	 1	 4.110
tex	 1	 24	 1	 936	 24	 539	 easy	 left	 1	 1.049
tex	 1	 24	 2	 684	 276	 463	 easy	 left	 1	 1.049
tex	 1	 24	 3	 560	 400	 358	 easy	 left	 1	 1.049
tex	 1	 25	 1	 744	 -216	 447	 easy	 right	 1	 3.490
tex	 1	 25	 2	 668	 -292	 492	 easy	 right	 1	 3.490
tex	 1	 25	 3	 560	 -400	 414	 easy	 right	 1	 3.490
tex	 1	 25	 4	 876	 -84	 559	 easy	 right	 1	 3.490
tex	 1	 25	 5	 1035	 75	 711	 easy	 right	 1	 3.490
tex	 1	 25	 6	 660	 -300	 700	 easy	 right	 1	 3.490
tex	 1	 25	 7	 873	 -87	 908	 easy	 right	 1	 3.490
tex	 1	 25	 8	 1352	 392	 944	 easy	 right	 1	 3.490
tex	 1	 25	 9	 1186	 226	 342	 easy	 right	 1	 3.490
tex	 1	 25	 10	 1270	 310	 685	 easy	 right	 1	 3.490
tex	 1	 25	 11	 1371	 411	 847	 easy	 right	 1	 3.490
tex	 1	 25	 12	 1347	 387	 783	 easy	 right	 1	 3.490
tex	 1	 25	 13	 566	 -394	 261	 easy	 right	 1	 3.490
tex	 1	 25	 14	 580	 -380	 381	 easy	 right	 1	 3.490
tex	 1	 26	 1	 950	 10	 546	 hard	 left	 1	 0.611
tex	 1	 26	 2	 895	 65	 537	 hard	 left	 1	 0.611
tex	 1	 26	 3	 1073	 -113	 596	 hard	 left	 1	 0.611
tex	 1	 26	 4	 1032	 -72	 595	 hard	 left	 1	 0.611
tex	 1	 27	 1	 935	 -25	 545	 easy	 right	 0	 3.963
tex	 1	 27	 2	 899	 -61	 586	 easy	 right	 0	 3.963
tex	 1	 27	 3	 1024	 64	 588	 easy	 right	 0	 3.963
tex	 1	 27	 4	 596	 -364	 478	 easy	 right	 0	 3.963
tex	 1	 27	 5	 554	 -406	 325	 easy	 right	 0	 3.963
tex	 1	 27	 6	 874	 -86	 873	 easy	 right	 0	 3.963
tex	 1	 27	 7	 674	 -286	 911	 easy	 right	 0	 3.963
tex	 1	 27	 8	 927	 -33	 935	 easy	 right	 0	 3.963
tex	 1	 27	 9	 1304	 344	 899	 easy	 right	 0	 3.963
tex	 1	 27	 10	 1393	 433	 571	 easy	 right	 0	 3.963
tex	 1	 27	 11	 1203	 243	 533	 easy	 right	 0	 3.963
tex	 1	 27	 12	 1128	 168	 558	 easy	 right	 0	 3.963
tex	 1	 27	 13	 1111	 151	 697	 easy	 right	 0	 3.963
tex	 1	 27	 14	 1124	 164	 670	 easy	 right	 0	 3.963
tex	 1	 28	 1	 957	 3	 541	 hard	 left	 1	 1.858
tex	 1	 28	 2	 914	 46	 532	 hard	 left	 1	 1.858
tex	 1	 28	 3	 976	 -16	 597	 hard	 left	 1	 1.858
tex	 1	 28	 4	 654	 306	 417	 hard	 left	 1	 1.858
tex	 1	 28	 5	 1047	 -87	 474	 hard	 left	 1	 1.858
tex	 1	 28	 6	 1014	 -54	 492	 hard	 left	 1	 1.858
tex	 1	 28	 7	 1366	 -406	 499	 hard	 left	 1	 1.858
tex	 1	 28	 8	 1368	 -408	 484	 hard	 left	 1	 1.858
tex	 1	 29	 1	 948	 12	 543	 hard	 left	 1	 5.725
tex	 1	 29	 2	 1103	 -143	 519	 hard	 left	 1	 5.725
tex	 1	 29	 3	 1004	 -44	 518	 hard	 left	 1	 5.725
tex	 1	 29	 4	 976	 -16	 482	 hard	 left	 1	 5.725
tex	 1	 29	 5	 524	 436	 517	 hard	 left	 1	 5.725
tex	 1	 29	 6	 506	 454	 603	 hard	 left	 1	 5.725
tex	 1	 29	 7	 454	 506	 921	 hard	 left	 1	 5.725
tex	 1	 29	 8	 461	 499	 895	 hard	 left	 1	 5.725
tex	 1	 29	 9	 842	 118	 920	 hard	 left	 1	 5.725
tex	 1	 29	 10	 798	 162	 916	 hard	 left	 1	 5.725
tex	 1	 29	 11	 1043	 -83	 876	 hard	 left	 1	 5.725
tex	 1	 29	 12	 977	 -17	 847	 hard	 left	 1	 5.725
tex	 1	 29	 13	 1262	 -302	 953	 hard	 left	 1	 5.725
tex	 1	 29	 14	 1217	 -257	 936	 hard	 left	 1	 5.725
tex	 1	 29	 15	 1091	 -131	 953	 hard	 left	 1	 5.725
tex	 1	 29	 16	 1274	 -314	 737	 hard	 left	 1	 5.725
tex	 1	 29	 17	 1207	 -247	 723	 hard	 left	 1	 5.725
tex	 1	 29	 18	 1338	 -378	 614	 hard	 left	 1	 5.725
tex	 1	 29	 19	 1099	 -139	 441	 hard	 left	 1	 5.725
tex	 1	 29	 20	 1105	 -145	 294	 hard	 left	 1	 5.725
tex	 1	 29	 21	 623	 337	 262	 hard	 left	 1	 5.725
tex	 1	 29	 22	 532	 428	 295	 hard	 left	 1	 5.725
tex	 1	 29	 23	 932	 28	 238	 hard	 left	 1	 5.725
tex	 1	 29	 24	 808	 152	 206	 hard	 left	 1	 5.725
tex	 1	 30	 1	 955	 -5	 536	 easy	 right	 1	 0.621
tex	 1	 30	 2	 903	 -57	 522	 easy	 right	 1	 0.621
tex	 1	 30	 3	 1019	 59	 576	 easy	 right	 1	 0.621
tex	 1	 30	 4	 1016	 56	 563	 easy	 right	 1	 0.621
tex	 1	 31	 1	 953	 7	 527	 easy	 left	 1	 6.032
tex	 1	 31	 2	 1026	 -66	 494	 easy	 left	 1	 6.032
tex	 1	 31	 3	 840	 120	 534	 easy	 left	 1	 6.032
tex	 1	 31	 4	 749	 211	 663	 easy	 left	 1	 6.032
tex	 1	 31	 5	 535	 425	 594	 easy	 left	 1	 6.032
tex	 1	 31	 6	 1008	 -48	 677	 easy	 left	 1	 6.032
tex	 1	 31	 7	 1273	 -313	 670	 easy	 left	 1	 6.032
tex	 1	 31	 8	 1441	 -481	 677	 easy	 left	 1	 6.032
tex	 1	 31	 9	 1473	 -513	 641	 easy	 left	 1	 6.032
tex	 1	 31	 10	 1026	 -66	 308	 easy	 left	 1	 6.032
tex	 1	 31	 11	 1013	 -53	 386	 easy	 left	 1	 6.032
tex	 1	 31	 12	 1024	 -64	 570	 easy	 left	 1	 6.032
tex	 1	 31	 13	 710	 250	 818	 easy	 left	 1	 6.032
tex	 1	 31	 14	 566	 394	 848	 easy	 left	 1	 6.032
tex	 1	 31	 15	 547	 413	 844	 easy	 left	 1	 6.032
tex	 1	 31	 16	 1056	 -96	 922	 easy	 left	 1	 6.032
tex	 1	 31	 17	 1174	 -214	 899	 easy	 left	 1	 6.032
tex	 1	 31	 18	 1306	 -346	 833	 easy	 left	 1	 6.032
tex	 1	 31	 19	 1300	 -340	 311	 easy	 left	 1	 6.032
tex	 1	 31	 20	 740	 220	 196	 easy	 left	 1	 6.032
tex	 1	 31	 21	 1097	 -137	 196	 easy	 left	 1	 6.032
tex	 1	 31	 22	 1073	 -113	 196	 easy	 left	 1	 6.032
tex	 1	 31	 23	 971	 -11	 267	 easy	 left	 1	 6.032
tex	 1	 32	 1	 954	 -6	 537	 hard	 right	 1	 8.461
tex	 1	 32	 2	 857	 -103	 606	 hard	 right	 1	 8.461
tex	 1	 32	 3	 1120	 160	 766	 hard	 right	 1	 8.461
tex	 1	 32	 4	 973	 13	 741	 hard	 right	 1	 8.461
tex	 1	 32	 5	 514	 -446	 590	 hard	 right	 1	 8.461
tex	 1	 32	 6	 594	 -366	 643	 hard	 right	 1	 8.461
tex	 1	 32	 7	 539	 -421	 639	 hard	 right	 1	 8.461
tex	 1	 32	 8	 462	 -498	 399	 hard	 right	 1	 8.461
tex	 1	 32	 9	 933	 -27	 286	 hard	 right	 1	 8.461
tex	 1	 32	 10	 828	 -132	 271	 hard	 right	 1	 8.461
tex	 1	 32	 11	 756	 -204	 376	 hard	 right	 1	 8.461
tex	 1	 32	 12	 515	 -445	 300	 hard	 right	 1	 8.461
tex	 1	 32	 13	 545	 -415	 356	 hard	 right	 1	 8.461
tex	 1	 32	 14	 707	 -253	 564	 hard	 right	 1	 8.461
tex	 1	 32	 15	 678	 -282	 556	 hard	 right	 1	 8.461
tex	 1	 32	 16	 888	 -72	 700	 hard	 right	 1	 8.461
tex	 1	 32	 17	 1119	 159	 800	 hard	 right	 1	 8.461
tex	 1	 32	 18	 841	 -119	 870	 hard	 right	 1	 8.461
tex	 1	 32	 19	 654	 -306	 893	 hard	 right	 1	 8.461
tex	 1	 32	 20	 1386	 426	 927	 hard	 right	 1	 8.461
tex	 1	 32	 21	 1406	 446	 513	 hard	 right	 1	 8.461
tex	 1	 32	 22	 1250	 290	 474	 hard	 right	 1	 8.461
tex	 1	 32	 23	 1004	 44	 265	 hard	 right	 1	 8.461
tex	 1	 32	 24	 1062	 102	 343	 hard	 right	 1	 8.461
tex	 1	 32	 25	 599	 -361	 259	 hard	 right	 1	 8.461
tex	 1	 32	 26	 752	 -208	 349	 hard	 right	 1	 8.461
tex	 1	 32	 27	 889	 -71	 493	 hard	 right	 1	 8.461
tex	 1	 32	 28	 852	 -108	 460	 hard	 right	 1	 8.461
tex	 1	 32	 29	 1204	 244	 451	 hard	 right	 1	 8.461
tex	 1	 32	 30	 1111	 151	 461	 hard	 right	 1	 8.461
tex	 1	 32	 31	 959	 -1	 783	 hard	 right	 1	 8.461
tex	 1	 32	 32	 597	 -363	 907	 hard	 right	 1	 8.461
tex	 1	 32	 33	 857	 -103	 941	 hard	 right	 1	 8.461
tex	 1	 33	 1	 956	 4	 562	 hard	 left	 1	 4.466
tex	 1	 33	 2	 1051	 -91	 448	 hard	 left	 1	 4.466
tex	 1	 33	 3	 1086	 -126	 316	 hard	 left	 1	 4.466
tex	 1	 33	 4	 492	 468	 585	 hard	 left	 1	 4.466
tex	 1	 33	 5	 443	 517	 532	 hard	 left	 1	 4.466
tex	 1	 33	 6	 963	 -3	 728	 hard	 left	 1	 4.466
tex	 1	 33	 7	 1167	 -207	 919	 hard	 left	 1	 4.466
tex	 1	 33	 8	 1164	 -204	 785	 hard	 left	 1	 4.466
tex	 1	 33	 9	 1095	 -135	 691	 hard	 left	 1	 4.466
tex	 1	 33	 10	 1035	 -75	 673	 hard	 left	 1	 4.466
tex	 1	 33	 11	 1042	 -82	 699	 hard	 left	 1	 4.466
tex	 1	 33	 12	 499	 461	 845	 hard	 left	 1	 4.466
tex	 1	 33	 13	 644	 316	 910	 hard	 left	 1	 4.466
tex	 1	 33	 14	 828	 132	 275	 hard	 left	 1	 4.466
tex	 1	 33	 15	 735	 225	 296	 hard	 left	 1	 4.466
tex	 1	 33	 16	 645	 315	 258	 hard	 left	 1	 4.466
tex	 1	 33	 17	 1125	 -165	 376	 hard	 left	 1	 4.466
tex	 1	 34	 1	 944	 -16	 535	 hard	 right	 1	 4.770
tex	 1	 34	 2	 874	 -86	 523	 hard	 right	 1	 4.770
tex	 1	 34	 3	 796	 -164	 497	 hard	 right	 1	 4.770
tex	 1	 34	 4	 500	 -460	 616	 hard	 right	 1	 4.770
tex	 1	 34	 5	 503	 -457	 755	 hard	 right	 1	 4.770
tex	 1	 34	 6	 506	 -454	 866	 hard	 right	 1	 4.770
tex	 1	 34	 7	 520	 -440	 851	 hard	 right	 1	 4.770
tex	 1	 34	 8	 1001	 41	 831	 hard	 right	 1	 4.770
tex	 1	 34	 9	 1293	 333	 849	 hard	 right	 1	 4.770
tex	 1	 34	 10	 1448	 488	 838	 hard	 right	 1	 4.770
tex	 1	 34	 11	 938	 -22	 847	 hard	 right	 1	 4.770
tex	 1	 34	 12	 912	 -48	 377	 hard	 right	 1	 4.770
tex	 1	 34	 13	 756	 -204	 346	 hard	 right	 1	 4.770
tex	 1	 34	 14	 725	 -235	 436	 hard	 right	 1	 4.770
tex	 1	 34	 15	 658	 -302	 484	 hard	 right	 1	 4.770
tex	 1	 34	 16	 465	 -495	 221	 hard	 right	 1	 4.770
tex	 1	 34	 17	 1205	 245	 411	 hard	 right	 1	 4.770
tex	 1	 34	 18	 1099	 139	 461	 hard	 right	 1	 4.770
tex	 1	 35	 1	 952	 -8	 546	 hard	 right	 1	 4.832
tex	 1	 35	 2	 846	 -114	 528	 hard	 right	 1	 4.832
tex	 1	 35	 3	 1026	 66	 833	 hard	 right	 1	 4.832
tex	 1	 35	 4	 1099	 139	 815	 hard	 right	 1	 4.832
tex	 1	 35	 5	 732	 -228	 739	 hard	 right	 1	 4.832
tex	 1	 35	 6	 1023	 63	 829	 hard	 right	 1	 4.832
tex	 1	 35	 7	 1053	 93	 852	 hard	 right	 1	 4.832
tex	 1	 35	 8	 988	 28	 774	 hard	 right	 1	 4.832
tex	 1	 35	 9	 661	 -299	 753	 hard	 right	 1	 4.832
tex	 1	 35	 10	 600	 -360	 442	 hard	 right	 1	 4.832
tex	 1	 35	 11	 981	 21	 251	 hard	 right	 1	 4.832
tex	 1	 35	 12	 939	 -21	 357	 hard	 right	 1	 4.832
tex	 1	 35	 13	 909	 -51	 364	 hard	 right	 1	 4.832
tex	 1	 35	 14	 879	 -81	 370	 hard	 right	 1	 4.832
tex	 1	 35	 15	 584	 -376	 403	 hard	 right	 1	 4.832
tex	 1	 35	 16	 650	 -310	 602	 hard	 right	 1	 4.832
tex	 1	 35	 17	 557	 -403	 262	 hard	 right	 1	 4.832
tex	 1	 36	 1	 953	 -7	 549	 hard	 right	 1	 6.290
tex	 1	 36	 2	 817	 -143	 614	 hard	 right	 1	 6.290
tex	 1	 36	 3	 560	 -400	 531	 hard	 right	 1	 6.290
tex	 1	 36	 4	 844	 -116	 747	 hard	 right	 1	 6.290
tex	 1	 36	 5	 1257	 297	 885	 hard	 right	 1	 6.290
tex	 1	 36	 6	 1003	 43	 875	 hard	 right	 1	 6.290
tex	 1	 36	 7	 870	 -90	 701	 hard	 right	 1	 6.290
tex	 1	 36	 8	 707	 -253	 948	 hard	 right	 1	 6.290
tex	 1	 36	 9	 479	 -481	 925	 hard	 right	 1	 6.290
tex	 1	 36	 10	 854	 -106	 719	 hard	 right	 1	 6.290
tex	 1	 36	 11	 770	 -190	 727	 hard	 right	 1	 6.290
tex	 1	 36	 12	 1154	 194	 694	 hard	 right	 1	 6.290
tex	 1	 36	 13	 1169	 209	 346	 hard	 right	 1	 6.290
tex	 1	 36	 14	 1006	 46	 438	 hard	 right	 1	 6.290
tex	 1	 36	 15	 775	 -185	 423	 hard	 right	 1	 6.290
tex	 1	 36	 16	 822	 -138	 482	 hard	 right	 1	 6.290
tex	 1	 36	 17	 638	 -322	 430	 hard	 right	 1	 6.290
tex	 1	 36	 18	 570	 -390	 362	 hard	 right	 1	 6.290
tex	 1	 36	 19	 531	 -429	 326	 hard	 right	 1	 6.290
tex	 1	 36	 20	 488	 -472	 307	 hard	 right	 1	 6.290
tex	 1	 36	 21	 762	 -198	 337	 hard	 right	 1	 6.290
tex	 1	 36	 22	 670	 -290	 371	 hard	 right	 1	 6.290
tex	 1	 37	 1	 922	 -38	 519	 easy	 right	 1	 6.470
tex	 1	 37	 2	 841	 -119	 505	 easy	 right	 1	 6.470
tex	 1	 37	 3	 564	 -396	 557	 easy	 right	 1	 6.470
tex	 1	 37	 4	 610	 -350	 371	 easy	 right	 1	 6.470
tex	 1	 37	 5	 577	 -383	 601	 easy	 right	 1	 6.470
tex	 1	 37	 6	 1081	 121	 548	 easy	 right	 1	 6.470
tex	 1	 37	 7	 970	 10	 584	 easy	 right	 1	 6.470
tex	 1	 37	 8	 937	 -23	 551	 easy	 right	 1	 6.470
tex	 1	 37	 9	 944	 -16	 655	 easy	 right	 1	 6.470
tex	 1	 37	 10	 1077	 117	 645	 easy	 right	 1	 6.470
tex	 1	 37	 11	 875	 -85	 610	 easy	 right	 1	 6.470
tex	 1	 37	 12	 719	 -241	 580	 easy	 right	 1	 6.470
tex	 1	 37	 13	 773	 -187	 640	 easy	 right	 1	 6.470
tex	 1	 37	 14	 938	 -22	 560	 easy	 right	 1	 6.470
tex	 1	 37	 15	 1281	 321	 659	 easy	 right	 1	 6.470
tex	 1	 37	 16	 1146	 186	 672	 easy	 right	 1	 6.470
tex	 1	 37	 17	 1047	 87	 794	 easy	 right	 1	 6.470
tex	 1	 37	 18	 823	 -137	 758	 easy	 right	 1	 6.470
tex	 1	 38	 1	 949	 -11	 560	 easy	 right	 1	 5.400
tex	 1	 38	 2	 848	 -112	 644	 easy	 right	 1	 5.400
tex	 1	 38	 3	 674	 -286	 555	 easy	 right	 1	 5.400
tex	 1	 38	 4	 576	 -384	 492	 easy	 right	 1	 5.400
tex	 1	 38	 5	 595	 -365	 279	 easy	 right	 1	 5.400
tex	 1	 38	 6	 1040	 80	 318	 easy	 right	 1	 5.400
tex	 1	 38	 7	 1158	 198	 555	 easy	 right	 1	 5.400
tex	 1	 38	 8	 1210	 250	 831	 easy	 right	 1	 5.400
tex	 1	 38	 9	 650	 -310	 891	 easy	 right	 1	 5.400
tex	 1	 38	 10	 1283	 323	 615	 easy	 right	 1	 5.400
tex	 1	 38	 11	 1240	 280	 605	 easy	 right	 1	 5.400
tex	 1	 38	 12	 744	 -216	 891	 easy	 right	 1	 5.400
tex	 1	 38	 13	 584	 -376	 897	 easy	 right	 1	 5.400
tex	 1	 38	 14	 481	 -479	 921	 easy	 right	 1	 5.400
tex	 1	 38	 15	 865	 -95	 418	 easy	 right	 1	 5.400
tex	 1	 38	 16	 730	 -230	 365	 easy	 right	 1	 5.400
tex	 1	 38	 17	 545	 -415	 273	 easy	 right	 1	 5.400
tex	 1	 38	 18	 857	 -103	 205	 easy	 right	 1	 5.400
tex	 1	 39	 1	 963	 -3	 512	 hard	 left	 1	 4.277
tex	 1	 39	 2	 804	 156	 525	 hard	 left	 1	 4.277
tex	 1	 39	 3	 516	 444	 563	 hard	 left	 1	 4.277
tex	 1	 39	 4	 1022	 -62	 594	 hard	 left	 1	 4.277
tex	 1	 39	 5	 1224	 -264	 783	 hard	 left	 1	 4.277
tex	 1	 39	 6	 1156	 -196	 886	 hard	 left	 1	 4.277
tex	 1	 39	 7	 1184	 -224	 923	 hard	 left	 1	 4.277
tex	 1	 39	 8	 1270	 -310	 360	 hard	 left	 1	 4.277
tex	 1	 39	 9	 1117	 -157	 322	 hard	 left	 1	 4.277
tex	 1	 39	 10	 1244	 -284	 426	 hard	 left	 1	 4.277
tex	 1	 39	 11	 1128	 -168	 998	 hard	 left	 1	 4.277
tex	 1	 39	 12	 1126	 -166	 913	 hard	 left	 1	 4.277
tex	 1	 39	 13	 1327	 -367	 939	 hard	 left	 1	 4.277
tex	 1	 39	 14	 1108	 -148	 866	 hard	 left	 1	 4.277
tex	 1	 39	 15	 644	 316	 380	 hard	 left	 1	 4.277
tex	 1	 39	 16	 588	 372	 352	 hard	 left	 1	 4.277
tex	 1	 39	 17	 544	 416	 643	 hard	 left	 1	 4.277
tex	 1	 40	 1	 950	 -10	 546	 hard	 right	 1	 1.381
tex	 1	 40	 2	 956	 -4	 545	 hard	 right	 1	 1.381
tex	 1	 40	 3	 872	 -88	 549	 hard	 right	 1	 1.381
tex	 1	 40	 4	 768	 -192	 473	 hard	 right	 1	 1.381
tex	 1	 40	 5	 507	 -453	 550	 hard	 right	 1	 1.381
tex	 1	 41	 1	 726	 234	 588	 easy	 left	 1	 0.687
tex	 1	 41	 2	 669	 291	 561	 easy	 left	 1	 0.687
tex	 1	 42	 1	 637	 -323	 563	 hard	 right	 1	 0.904
tex	 1	 42	 2	 743	 -217	 572	 hard	 right	 1	 0.904
tex	 1	 42	 3	 785	 -175	 369	 hard	 right	 1	 0.904
tex	 1	 42	 4	 765	 -195	 352	 hard	 right	 1	 0.904
tex	 1	 43	 1	 751	 209	 484	 hard	 left	 1	 4.660
tex	 1	 43	 2	 965	 -5	 501	 hard	 left	 1	 4.660
tex	 1	 43	 3	 1221	 -261	 521	 hard	 left	 1	 4.660
tex	 1	 43	 4	 1222	 -262	 471	 hard	 left	 1	 4.660
tex	 1	 43	 5	 1290	 -330	 794	 hard	 left	 1	 4.660
tex	 1	 43	 6	 1270	 -310	 723	 hard	 left	 1	 4.660
tex	 1	 43	 7	 1366	 -406	 964	 hard	 left	 1	 4.660
tex	 1	 43	 8	 1379	 -419	 945	 hard	 left	 1	 4.660
tex	 1	 43	 9	 592	 368	 913	 hard	 left	 1	 4.660
tex	 1	 43	 10	 452	 508	 913	 hard	 left	 1	 4.660
tex	 1	 43	 11	 579	 381	 404	 hard	 left	 1	 4.660
tex	 1	 43	 12	 749	 211	 578	 hard	 left	 1	 4.660
tex	 1	 43	 13	 552	 408	 470	 hard	 left	 1	 4.660
tex	 1	 43	 14	 469	 491	 454	 hard	 left	 1	 4.660
tex	 1	 43	 15	 1214	 -254	 292	 hard	 left	 1	 4.660
tex	 1	 43	 16	 1070	 -110	 277	 hard	 left	 1	 4.660
tex	 1	 43	 17	 1054	 -94	 296	 hard	 left	 1	 4.660
tex	 1	 44	 1	 948	 -12	 540	 hard	 right	 1	 3.620
tex	 1	 44	 2	 965	 5	 527	 hard	 right	 1	 3.620
tex	 1	 44	 3	 816	 -144	 607	 hard	 right	 1	 3.620
tex	 1	 44	 4	 497	 -463	 494	 hard	 right	 1	 3.620
tex	 1	 44	 5	 717	 -243	 797	 hard	 right	 1	 3.620
tex	 1	 44	 6	 1108	 148	 914	 hard	 right	 1	 3.620
tex	 1	 44	 7	 1192	 232	 889	 hard	 right	 1	 3.620
tex	 1	 44	 8	 1253	 293	 437	 hard	 right	 1	 3.620
tex	 1	 44	 9	 1089	 129	 361	 hard	 right	 1	 3.620
tex	 1	 44	 10	 796	 -164	 330	 hard	 right	 1	 3.620
tex	 1	 44	 11	 779	 -181	 542	 hard	 right	 1	 3.620
tex	 1	 44	 12	 801	 -159	 593	 hard	 right	 1	 3.620
tex	 1	 45	 1	 954	 6	 547	 easy	 left	 1	 3.573
tex	 1	 45	 2	 835	 125	 467	 easy	 left	 1	 3.573
tex	 1	 45	 3	 814	 146	 445	 easy	 left	 1	 3.573
tex	 1	 45	 4	 1110	 -150	 408	 easy	 left	 1	 3.573
tex	 1	 45	 5	 1026	 -66	 472	 easy	 left	 1	 3.573
tex	 1	 45	 6	 1391	 -431	 362	 easy	 left	 1	 3.573
tex	 1	 45	 7	 1421	 -461	 859	 easy	 left	 1	 3.573
tex	 1	 45	 8	 966	 -6	 836	 easy	 left	 1	 3.573
tex	 1	 45	 9	 949	 11	 672	 easy	 left	 1	 3.573
tex	 1	 45	 10	 1018	 -58	 551	 easy	 left	 1	 3.573
tex	 1	 45	 11	 617	 343	 578	 easy	 left	 1	 3.573
tex	 1	 45	 12	 1020	 -60	 697	 easy	 left	 1	 3.573
tex	 1	 45	 13	 637	 323	 202	 easy	 left	 1	 3.573
tex	 1	 45	 14	 942	 18	 150	 easy	 left	 1	 3.573
tex	 1	 46	 1	 948	 -12	 541	 easy	 right	 1	 0.655
tex	 1	 46	 2	 900	 -60	 531	 easy	 right	 1	 0.655
tex	 1	 46	 3	 994	 34	 774	 easy	 right	 1	 0.655
tex	 1	 46	 4	 1057	 97	 814	 easy	 right	 1	 0.655
tex	 1	 47	 1	 939	 21	 534	 hard	 left	 1	 1.462
tex	 1	 47	 2	 1026	 -66	 688	 hard	 left	 1	 1.462
tex	 1	 47	 3	 534	 426	 619	 hard	 left	 1	 1.462
tex	 1	 47	 4	 804	 156	 852	 hard	 left	 1	 1.462
tex	 1	 47	 5	 1076	 -116	 863	 hard	 left	 1	 1.462
tex	 1	 47	 6	 1097	 -137	 854	 hard	 left	 1	 1.462
tex	 1	 48	 1	 956	 4	 562	 easy	 left	 1	 4.208
tex	 1	 48	 2	 1044	 -84	 769	 easy	 left	 1	 4.208
tex	 1	 48	 3	 1178	 -218	 779	 easy	 left	 1	 4.208
tex	 1	 48	 4	 1117	 -157	 358	 easy	 left	 1	 4.208
tex	 1	 48	 5	 1089	 -129	 511	 easy	 left	 1	 4.208
tex	 1	 48	 6	 1412	 -452	 648	 easy	 left	 1	 4.208
tex	 1	 48	 7	 1277	 -317	 679	 easy	 left	 1	 4.208
tex	 1	 48	 8	 607	 353	 741	 easy	 left	 1	 4.208
tex	 1	 48	 9	 504	 456	 651	 easy	 left	 1	 4.208
tex	 1	 48	 10	 660	 300	 302	 easy	 left	 1	 4.208
tex	 1	 48	 11	 908	 52	 370	 easy	 left	 1	 4.208
tex	 1	 48	 12	 513	 447	 200	 easy	 left	 1	 4.208
tex	 1	 48	 13	 995	 -35	 330	 easy	 left	 1	 4.208
tex	 1	 48	 14	 1298	 -338	 314	 easy	 left	 1	 4.208
tex	 1	 48	 15	 1006	 -46	 428	 easy	 left	 1	 4.208
tex	 1	 48	 16	 1090	 -130	 426	 easy	 left	 1	 4.208
tex	 1	 49	 1	 948	 12	 518	 easy	 left	 0	 0.013
tex	 1	 50	 1	 952	 -8	 516	 hard	 right	 1	 5.479
tex	 1	 50	 2	 879	 -81	 546	 hard	 right	 1	 5.479
tex	 1	 50	 3	 529	 -431	 675	 hard	 right	 1	 5.479
tex	 1	 50	 4	 721	 -239	 475	 hard	 right	 1	 5.479
tex	 1	 50	 5	 804	 -156	 425	 hard	 right	 1	 5.479
tex	 1	 50	 6	 898	 -62	 369	 hard	 right	 1	 5.479
tex	 1	 50	 7	 796	 -164	 449	 hard	 right	 1	 5.479
tex	 1	 50	 8	 809	 -151	 431	 hard	 right	 1	 5.479
tex	 1	 50	 9	 659	 -301	 489	 hard	 right	 1	 5.479
tex	 1	 50	 10	 815	 -145	 425	 hard	 right	 1	 5.479
tex	 1	 50	 11	 650	 -310	 500	 hard	 right	 1	 5.479
tex	 1	 50	 12	 1082	 122	 619	 hard	 right	 1	 5.479
tex	 1	 50	 13	 969	 9	 642	 hard	 right	 1	 5.479
tex	 1	 50	 14	 1275	 315	 882	 hard	 right	 1	 5.479
tex	 1	 50	 15	 966	 6	 889	 hard	 right	 1	 5.479
tex	 1	 50	 16	 616	 -344	 880	 hard	 right	 1	 5.479
tex	 1	 50	 17	 511	 -449	 839	 hard	 right	 1	 5.479
tex	 1	 50	 18	 461	 -499	 706	 hard	 right	 1	 5.479
tex	 1	 50	 19	 495	 -465	 402	 hard	 right	 1	 5.479
tex	 1	 50	 20	 559	 -401	 222	 hard	 right	 1	 5.479
tex	 1	 50	 21	 468	 -492	 306	 hard	 right	 1	 5.479
tex	 1	 50	 22	 809	 -151	 327	 hard	 right	 1	 5.479
tex	 1	 51	 1	 938	 22	 533	 hard	 left	 1	 0.935
tex	 1	 51	 2	 829	 131	 580	 hard	 left	 1	 0.935
tex	 1	 51	 3	 1016	 -56	 673	 hard	 left	 1	 0.935
tex	 1	 51	 4	 1076	 -116	 769	 hard	 left	 1	 0.935
tex	 1	 51	 5	 1070	 -110	 749	 hard	 left	 1	 0.935
tex	 1	 52	 1	 945	 15	 566	 easy	 left	 1	 2.435
tex	 1	 52	 2	 951	 9	 612	 easy	 left	 1	 2.435
tex	 1	 52	 3	 1007	 -47	 659	 easy	 left	 1	 2.435
tex	 1	 52	 4	 738	 222	 480	 easy	 left	 1	 2.435
tex	 1	 52	 5	 1115	 -155	 784	 easy	 left	 1	 2.435
tex	 1	 52	 6	 922	 38	 739	 easy	 left	 1	 2.435
tex	 1	 52	 7	 823	 137	 689	 easy	 left	 1	 2.435
tex	 1	 52	 8	 668	 292	 640	 easy	 left	 1	 2.435
tex	 1	 52	 9	 1003	 -43	 808	 easy	 left	 1	 2.435
tex	 1	 52	 10	 1258	 -298	 683	 easy	 left	 1	 2.435
tex	 1	 52	 11	 1146	 -186	 635	 easy	 left	 1	 2.435
tex	 1	 52	 12	 1099	 -139	 446	 easy	 left	 1	 2.435
tex	 1	 53	 1	 879	 81	 542	 hard	 left	 1	 4.096
tex	 1	 53	 2	 932	 28	 533	 hard	 left	 1	 4.096
tex	 1	 53	 3	 1037	 -77	 578	 hard	 left	 1	 4.096
tex	 1	 53	 4	 1015	 -55	 708	 hard	 left	 1	 4.096
tex	 1	 53	 5	 1055	 -95	 755	 hard	 left	 1	 4.096
tex	 1	 53	 6	 1322	 -362	 255	 hard	 left	 1	 4.096
tex	 1	 53	 7	 1410	 -450	 916	 hard	 left	 1	 4.096
tex	 1	 53	 8	 1310	 -350	 840	 hard	 left	 1	 4.096
tex	 1	 53	 9	 587	 373	 772	 hard	 left	 1	 4.096
tex	 1	 53	 10	 466	 494	 462	 hard	 left	 1	 4.096
tex	 1	 53	 11	 997	 -37	 357	 hard	 left	 1	 4.096
tex	 1	 53	 12	 1014	 -54	 488	 hard	 left	 1	 4.096
tex	 1	 53	 13	 1144	 -184	 308	 hard	 left	 1	 4.096
tex	 1	 53	 14	 1077	 -117	 448	 hard	 left	 1	 4.096
tex	 1	 54	 1	 938	 -22	 520	 easy	 right	 1	 3.657
tex	 1	 54	 2	 803	 -157	 494	 easy	 right	 1	 3.657
tex	 1	 54	 3	 722	 -238	 552	 easy	 right	 1	 3.657
tex	 1	 54	 4	 577	 -383	 409	 easy	 right	 1	 3.657
tex	 1	 54	 5	 723	 -237	 601	 easy	 right	 1	 3.657
tex	 1	 54	 6	 715	 -245	 582	 easy	 right	 1	 3.657
tex	 1	 54	 7	 705	 -255	 560	 easy	 right	 1	 3.657
tex	 1	 54	 8	 725	 -235	 557	 easy	 right	 1	 3.657
tex	 1	 54	 9	 592	 -368	 474	 easy	 right	 1	 3.657
tex	 1	 54	 10	 1013	 53	 647	 easy	 right	 1	 3.657
tex	 1	 54	 11	 1300	 340	 759	 easy	 right	 1	 3.657
tex	 1	 54	 12	 971	 11	 773	 easy	 right	 1	 3.657
tex	 1	 54	 13	 803	 -157	 780	 easy	 right	 1	 3.657
tex	 1	 54	 14	 735	 -225	 500	 easy	 right	 1	 3.657
tex	 1	 55	 1	 947	 13	 545	 easy	 left	 1	 0.670
tex	 1	 55	 2	 691	 269	 863	 easy	 left	 1	 0.670
tex	 1	 55	 3	 711	 249	 848	 easy	 left	 1	 0.670
tex	 1	 56	 1	 925	 -35	 553	 easy	 right	 1	 2.196
tex	 1	 56	 2	 799	 -161	 606	 easy	 right	 1	 2.196
tex	 1	 56	 3	 649	 -311	 560	 easy	 right	 1	 2.196
tex	 1	 56	 4	 1320	 360	 505	 easy	 right	 1	 2.196
tex	 1	 56	 5	 1455	 495	 507	 easy	 right	 1	 2.196
tex	 1	 56	 6	 670	 -290	 610	 easy	 right	 1	 2.196
tex	 1	 56	 7	 510	 -450	 563	 easy	 right	 1	 2.196
tex	 1	 56	 8	 749	 -211	 471	 easy	 right	 1	 2.196
tex	 1	 56	 9	 663	 -297	 469	 easy	 right	 1	 2.196
tex	 1	 56	 10	 646	 -314	 550	 easy	 right	 1	 2.196
tex	 1	 57	 1	 942	 18	 537	 hard	 left	 1	 3.391
tex	 1	 57	 2	 1007	 -47	 495	 hard	 left	 1	 3.391
tex	 1	 57	 3	 989	 -29	 681	 hard	 left	 1	 3.391
tex	 1	 57	 4	 975	 -15	 659	 hard	 left	 1	 3.391
tex	 1	 57	 5	 1360	 -400	 573	 hard	 left	 1	 3.391
tex	 1	 57	 6	 1127	 -167	 891	 hard	 left	 1	 3.391
tex	 1	 57	 7	 1233	 -273	 495	 hard	 left	 1	 3.391
tex	 1	 57	 8	 1200	 -240	 478	 hard	 left	 1	 3.391
tex	 1	 57	 9	 1229	 -269	 475	 hard	 left	 1	 3.391
tex	 1	 57	 10	 1339	 -379	 258	 hard	 left	 1	 3.391
tex	 1	 57	 11	 679	 281	 307	 hard	 left	 1	 3.391
tex	 1	 57	 12	 575	 385	 592	 hard	 left	 1	 3.391
tex	 1	 58	 1	 950	 -10	 537	 hard	 right	 1	 2.456
tex	 1	 58	 2	 874	 -86	 522	 hard	 right	 1	 2.456
tex	 1	 58	 3	 911	 -49	 460	 hard	 right	 1	 2.456
tex	 1	 58	 4	 938	 -22	 635	 hard	 right	 1	 2.456
tex	 1	 58	 5	 524	 -436	 375	 hard	 right	 1	 2.456
tex	 1	 58	 6	 615	 -345	 461	 hard	 right	 1	 2.456
tex	 1	 58	 7	 1139	 179	 591	 hard	 right	 1	 2.456
tex	 1	 58	 8	 975	 15	 701	 hard	 right	 1	 2.456
tex	 1	 58	 9	 630	 -330	 839	 hard	 right	 1	 2.456
tex	 1	 59	 1	 950	 10	 545	 easy	 left	 1	 0.696
tex	 1	 59	 2	 558	 402	 731	 easy	 left	 1	 0.696
tex	 1	 59	 3	 530	 430	 736	 easy	 left	 1	 0.696
tex	 1	 60	 1	 954	 6	 552	 easy	 left	 1	 1.998
tex	 1	 60	 2	 901	 59	 585	 easy	 left	 1	 1.998
tex	 1	 60	 3	 1033	 -73	 769	 easy	 left	 1	 1.998
tex	 1	 60	 4	 550	 410	 851	 easy	 left	 1	 1.998
tex	 1	 60	 5	 1136	 -176	 843	 easy	 left	 1	 1.998
tex	 1	 60	 6	 1065	 -105	 455	 easy	 left	 1	 1.998
tex	 1	 60	 7	 979	 -19	 487	 easy	 left	 1	 1.998
tex	 1	 61	 1	 946	 14	 531	 hard	 left	 1	 4.427
tex	 1	 61	 2	 924	 36	 529	 hard	 left	 1	 4.427
tex	 1	 61	 3	 1071	 -111	 714	 hard	 left	 1	 4.427
tex	 1	 61	 4	 1458	 -498	 879	 hard	 left	 1	 4.427
tex	 1	 61	 5	 992	 -32	 752	 hard	 left	 1	 4.427
tex	 1	 61	 6	 1323	 -363	 820	 hard	 left	 1	 4.427
tex	 1	 61	 7	 1014	 -54	 604	 hard	 left	 1	 4.427
tex	 1	 61	 8	 1124	 -164	 337	 hard	 left	 1	 4.427
tex	 1	 61	 9	 1018	 -58	 557	 hard	 left	 1	 4.427
tex	 1	 61	 10	 978	 -18	 545	 hard	 left	 1	 4.427
tex	 1	 61	 11	 999	 -39	 630	 hard	 left	 1	 4.427
tex	 1	 61	 12	 1045	 -85	 393	 hard	 left	 1	 4.427
tex	 1	 61	 13	 628	 332	 525	 hard	 left	 1	 4.427
tex	 1	 61	 14	 621	 339	 670	 hard	 left	 1	 4.427
tex	 1	 61	 15	 1020	 -60	 737	 hard	 left	 1	 4.427
tex	 1	 62	 1	 953	 -7	 548	 easy	 right	 1	 0.608
tex	 1	 62	 2	 922	 -38	 549	 easy	 right	 1	 0.608
tex	 1	 62	 3	 1355	 395	 416	 easy	 right	 1	 0.608
tex	 1	 62	 4	 1404	 444	 429	 easy	 right	 1	 0.608
tex	 1	 64	 1	 949	 -11	 546	 easy	 right	 1	 0.631
tex	 1	 64	 2	 961	 1	 534	 easy	 right	 1	 0.631
tex	 1	 64	 3	 1257	 297	 564	 easy	 right	 1	 0.631
tex	 1	 64	 4	 1306	 346	 576	 easy	 right	 1	 0.631
tex	 1	 65	 1	 948	 12	 555	 hard	 left	 1	 2.965
tex	 1	 65	 2	 1036	 -76	 583	 hard	 left	 1	 2.965
tex	 1	 65	 3	 1218	 -258	 654	 hard	 left	 1	 2.965
tex	 1	 65	 4	 652	 308	 608	 hard	 left	 1	 2.965
tex	 1	 65	 5	 782	 178	 731	 hard	 left	 1	 2.965
tex	 1	 65	 6	 502	 458	 444	 hard	 left	 1	 2.965
tex	 1	 65	 7	 1042	 -82	 283	 hard	 left	 1	 2.965
tex	 1	 65	 8	 1201	 -241	 634	 hard	 left	 1	 2.965
tex	 1	 65	 9	 1155	 -195	 738	 hard	 left	 1	 2.965
tex	 1	 65	 10	 1263	 -303	 482	 hard	 left	 1	 2.965
tex	 1	 65	 11	 1397	 -437	 860	 hard	 left	 1	 2.965
tex	 1	 65	 12	 699	 261	 855	 hard	 left	 1	 2.965
tex	 1	 66	 1	 943	 -17	 539	 hard	 right	 1	 1.598
tex	 1	 66	 2	 833	 -127	 606	 hard	 right	 1	 1.598
tex	 1	 66	 3	 893	 -67	 656	 hard	 right	 1	 1.598
tex	 1	 66	 4	 517	 -443	 539	 hard	 right	 1	 1.598
tex	 1	 66	 5	 529	 -431	 242	 hard	 right	 1	 1.598
tex	 1	 66	 6	 505	 -455	 225	 hard	 right	 1	 1.598
tex	 1	 66	 7	 518	 -442	 215	 hard	 right	 1	 1.598
tex	 1	 67	 1	 935	 -25	 529	 easy	 right	 1	 2.251
tex	 1	 67	 2	 791	 -169	 603	 easy	 right	 1	 2.251
tex	 1	 67	 3	 616	 -344	 406	 easy	 right	 1	 2.251
tex	 1	 67	 4	 665	 -295	 586	 easy	 right	 1	 2.251
tex	 1	 67	 5	 692	 -268	 309	 easy	 right	 1	 2.251
tex	 1	 67	 6	 1172	 212	 477	 easy	 right	 1	 2.251
tex	 1	 67	 7	 1259	 299	 772	 easy	 right	 1	 2.251
tex	 1	 67	 8	 541	 -419	 539	 easy	 right	 1	 2.251
tex	 1	 67	 9	 463	 -497	 518	 easy	 right	 1	 2.251
tex	 1	 68	 1	 926	 -34	 525	 hard	 right	 1	 1.138
tex	 1	 68	 2	 955	 -5	 504	 hard	 right	 1	 1.138
tex	 1	 68	 3	 891	 -69	 526	 hard	 right	 1	 1.138
tex	 1	 68	 4	 626	 -334	 490	 hard	 right	 1	 1.138
tex	 1	 68	 5	 735	 -225	 260	 hard	 right	 1	 1.138
tex	 1	 68	 6	 752	 -208	 264	 hard	 right	 1	 1.138
tex	 1	 69	 1	 936	 24	 543	 easy	 left	 1	 3.605
tex	 1	 69	 2	 796	 164	 471	 easy	 left	 1	 3.605
tex	 1	 69	 3	 1023	 -63	 733	 easy	 left	 1	 3.605
tex	 1	 69	 4	 1119	 -159	 629	 easy	 left	 1	 3.605
tex	 1	 69	 5	 947	 13	 516	 easy	 left	 1	 3.605
tex	 1	 69	 6	 1100	 -140	 471	 easy	 left	 1	 3.605
tex	 1	 69	 7	 1279	 -319	 303	 easy	 left	 1	 3.605
tex	 1	 69	 8	 1069	 -109	 483	 easy	 left	 1	 3.605
tex	 1	 69	 9	 1144	 -184	 447	 easy	 left	 1	 3.605
tex	 1	 69	 10	 1067	 -107	 506	 easy	 left	 1	 3.605
tex	 1	 70	 1	 948	 -12	 550	 easy	 right	 1	 0.610
tex	 1	 70	 2	 915	 -45	 528	 easy	 right	 1	 0.610
tex	 1	 70	 3	 932	 -28	 521	 easy	 right	 1	 0.610
tex	 1	 70	 4	 1343	 383	 689	 easy	 right	 1	 0.610
tex	 1	 70	 5	 1369	 409	 697	 easy	 right	 1	 0.610
tex	 1	 71	 1	 946	 -14	 543	 easy	 right	 1	 1.759
tex	 1	 71	 2	 823	 -137	 593	 easy	 right	 1	 1.759
tex	 1	 71	 3	 545	 -415	 712	 easy	 right	 1	 1.759
tex	 1	 71	 4	 1137	 177	 707	 easy	 right	 1	 1.759
tex	 1	 71	 5	 760	 -200	 661	 easy	 right	 1	 1.759
tex	 1	 71	 6	 724	 -236	 549	 easy	 right	 1	 1.759
tex	 1	 72	 1	 939	 21	 556	 easy	 left	 1	 1.583
tex	 1	 72	 2	 1030	 -70	 576	 easy	 left	 1	 1.583
tex	 1	 72	 3	 1013	 -53	 414	 easy	 left	 1	 1.583
tex	 1	 72	 4	 1171	 -211	 624	 easy	 left	 1	 1.583
tex	 1	 72	 5	 1096	 -136	 631	 easy	 left	 1	 1.583
tex	 1	 73	 1	 941	 -19	 547	 easy	 right	 1	 0.591
tex	 1	 73	 2	 1017	 57	 786	 easy	 right	 1	 0.591
tex	 1	 73	 3	 1020	 60	 841	 easy	 right	 1	 0.591
tex	 1	 74	 1	 938	 22	 543	 easy	 left	 1	 1.849
tex	 1	 74	 2	 922	 38	 674	 easy	 left	 1	 1.849
tex	 1	 74	 3	 995	 -35	 582	 easy	 left	 1	 1.849
tex	 1	 74	 4	 864	 96	 525	 easy	 left	 1	 1.849
tex	 1	 74	 5	 1022	 -62	 762	 easy	 left	 1	 1.849
tex	 1	 74	 6	 1092	 -132	 441	 easy	 left	 1	 1.849
tex	 1	 74	 7	 532	 428	 318	 easy	 left	 1	 1.849
tex	 1	 74	 8	 1107	 -147	 302	 easy	 left	 1	 1.849
tex	 1	 75	 1	 928	 32	 519	 hard	 left	 1	 0.676
tex	 1	 75	 2	 946	 14	 527	 hard	 left	 1	 0.676
tex	 1	 75	 3	 1078	 -118	 372	 hard	 left	 1	 0.676
tex	 1	 75	 4	 1077	 -117	 355	 hard	 left	 1	 0.676
tex	 1	 76	 1	 957	 3	 528	 easy	 left	 1	 1.911
tex	 1	 76	 2	 1002	 -42	 392	 easy	 left	 1	 1.911
tex	 1	 76	 3	 688	 272	 512	 easy	 left	 1	 1.911
tex	 1	 76	 4	 985	 -25	 584	 easy	 left	 1	 1.911
tex	 1	 76	 5	 729	 231	 620	 easy	 left	 1	 1.911
tex	 1	 76	 6	 1113	 -153	 714	 easy	 left	 1	 1.911
tex	 1	 77	 1	 925	 35	 530	 hard	 left	 1	 0.546
tex	 1	 77	 2	 946	 14	 538	 hard	 left	 1	 0.546
tex	 1	 77	 3	 1029	 -69	 573	 hard	 left	 1	 0.546
tex	 1	 78	 1	 940	 -20	 550	 hard	 right	 1	 2.578
tex	 1	 78	 2	 1033	 73	 507	 hard	 right	 1	 2.578
tex	 1	 78	 3	 596	 -364	 472	 hard	 right	 1	 2.578
tex	 1	 78	 4	 589	 -371	 525	 hard	 right	 1	 2.578
tex	 1	 78	 5	 845	 -115	 519	 hard	 right	 1	 2.578
tex	 1	 78	 6	 617	 -343	 540	 hard	 right	 1	 2.578
tex	 1	 79	 1	 951	 9	 533	 easy	 left	 1	 0.476
tex	 1	 79	 2	 860	 100	 539	 easy	 left	 1	 0.476
tex	 1	 79	 3	 859	 101	 475	 easy	 left	 1	 0.476
tex	 1	 79	 4	 838	 122	 461	 easy	 left	 1	 0.476
tex	 1	 80	 1	 949	 -11	 558	 hard	 right	 0	 0.993
tex	 1	 80	 2	 889	 -71	 521	 hard	 right	 0	 0.993
tex	 1	 80	 3	 779	 -181	 495	 hard	 right	 0	 0.993
tex	 1	 81	 1	 947	 -13	 507	 hard	 right	 1	 2.991
tex	 1	 81	 2	 797	 -163	 480	 hard	 right	 1	 2.991
tex	 1	 81	 3	 795	 -165	 399	 hard	 right	 1	 2.991
tex	 1	 81	 4	 842	 -118	 337	 hard	 right	 1	 2.991
tex	 1	 81	 5	 646	 -314	 299	 hard	 right	 1	 2.991
tex	 1	 81	 6	 763	 -197	 482	 hard	 right	 1	 2.991
tex	 1	 81	 7	 631	 -329	 487	 hard	 right	 1	 2.991
tex	 1	 81	 8	 1101	 141	 502	 hard	 right	 1	 2.991
tex	 1	 81	 9	 1046	 86	 509	 hard	 right	 1	 2.991
tex	 1	 81	 10	 886	 -74	 572	 hard	 right	 1	 2.991
tex	 1	 81	 11	 737	 -223	 870	 hard	 right	 1	 2.991
tex	 1	 82	 1	 941	 -19	 535	 easy	 right	 1	 0.604
tex	 1	 82	 2	 970	 10	 464	 easy	 right	 1	 0.604
tex	 1	 82	 3	 1114	 154	 270	 easy	 right	 1	 0.604
tex	 1	 82	 4	 1156	 196	 242	 easy	 right	 1	 0.604
tex	 1	 83	 1	 954	 -6	 534	 easy	 right	 1	 2.153
tex	 1	 83	 2	 998	 38	 387	 easy	 right	 1	 2.153
tex	 1	 83	 3	 1081	 121	 330	 easy	 right	 1	 2.153
tex	 1	 83	 4	 735	 -225	 390	 easy	 right	 1	 2.153
tex	 1	 83	 5	 647	 -313	 297	 easy	 right	 1	 2.153
tex	 1	 83	 6	 738	 -222	 624	 easy	 right	 1	 2.153
tex	 1	 83	 7	 597	 -363	 683	 easy	 right	 1	 2.153
tex	 1	 83	 8	 848	 -112	 821	 easy	 right	 1	 2.153
tex	 1	 83	 9	 797	 -163	 827	 easy	 right	 1	 2.153
tex	 1	 83	 10	 816	 -144	 730	 easy	 right	 1	 2.153
tex	 1	 84	 1	 943	 17	 509	 easy	 left	 1	 0.639
tex	 1	 84	 2	 871	 89	 485	 easy	 left	 1	 0.639
tex	 1	 84	 3	 561	 399	 694	 easy	 left	 1	 0.639
tex	 1	 84	 4	 542	 418	 684	 easy	 left	 1	 0.639
tex	 1	 85	 1	 943	 17	 557	 easy	 left	 1	 0.554
tex	 1	 85	 2	 941	 19	 512	 easy	 left	 1	 0.554
tex	 1	 85	 3	 745	 215	 269	 easy	 left	 1	 0.554
tex	 1	 86	 1	 939	 21	 554	 hard	 left	 1	 1.542
tex	 1	 86	 2	 950	 10	 524	 hard	 left	 1	 1.542
tex	 1	 86	 3	 804	 156	 496	 hard	 left	 1	 1.542
tex	 1	 86	 4	 1220	 -260	 788	 hard	 left	 1	 1.542
tex	 1	 86	 5	 542	 418	 804	 hard	 left	 1	 1.542
tex	 1	 86	 6	 1282	 -322	 369	 hard	 left	 1	 1.542
tex	 1	 86	 7	 1075	 -115	 330	 hard	 left	 1	 1.542
tex	 1	 86	 8	 1370	 -410	 380	 hard	 left	 1	 1.542
tex	 1	 87	 1	 948	 -12	 523	 hard	 right	 1	 2.334
tex	 1	 87	 2	 958	 -2	 482	 hard	 right	 1	 2.334
tex	 1	 87	 3	 544	 -416	 483	 hard	 right	 1	 2.334
tex	 1	 87	 4	 701	 -259	 647	 hard	 right	 1	 2.334
tex	 1	 87	 5	 564	 -396	 658	 hard	 right	 1	 2.334
tex	 1	 87	 6	 458	 -502	 874	 hard	 right	 1	 2.334
tex	 1	 87	 7	 1224	 264	 470	 hard	 right	 1	 2.334
tex	 1	 87	 8	 1334	 374	 302	 hard	 right	 1	 2.334
tex	 1	 87	 9	 844	 -116	 243	 hard	 right	 1	 2.334
tex	 1	 88	 1	 944	 -16	 535	 easy	 right	 1	 0.589
tex	 1	 88	 2	 1228	 268	 554	 easy	 right	 1	 0.589
tex	 1	 88	 3	 1196	 236	 547	 easy	 right	 1	 0.589
tex	 1	 89	 1	 954	 -6	 543	 hard	 right	 1	 0.763
tex	 1	 89	 2	 855	 -105	 470	 hard	 right	 1	 0.763
tex	 1	 89	 3	 797	 -163	 341	 hard	 right	 1	 0.763
tex	 1	 89	 4	 752	 -208	 337	 hard	 right	 1	 0.763
tex	 1	 90	 1	 948	 12	 526	 hard	 left	 0	 1.657
tex	 1	 90	 2	 784	 176	 466	 hard	 left	 0	 1.657
tex	 1	 90	 3	 1098	 -138	 558	 hard	 left	 0	 1.657
tex	 1	 90	 4	 1368	 -408	 604	 hard	 left	 0	 1.657
tex	 1	 90	 5	 1007	 -47	 669	 hard	 left	 0	 1.657
tex	 1	 90	 6	 1126	 -166	 686	 hard	 left	 0	 1.657
tex	 1	 91	 1	 947	 13	 521	 easy	 left	 1	 0.565
tex	 1	 91	 2	 895	 65	 515	 easy	 left	 1	 0.565
tex	 1	 91	 3	 523	 437	 665	 easy	 left	 1	 0.565
tex	 1	 92	 1	 949	 -11	 543	 easy	 right	 1	 4.215
tex	 1	 92	 2	 631	 -329	 588	 easy	 right	 1	 4.215
tex	 1	 92	 3	 875	 -85	 656	 easy	 right	 1	 4.215
tex	 1	 92	 4	 1151	 191	 507	 easy	 right	 1	 4.215
tex	 1	 92	 5	 913	 -47	 467	 easy	 right	 1	 4.215
tex	 1	 92	 6	 1027	 67	 699	 easy	 right	 1	 4.215
tex	 1	 92	 7	 871	 -89	 586	 easy	 right	 1	 4.215
tex	 1	 92	 8	 1227	 267	 753	 easy	 right	 1	 4.215
tex	 1	 92	 9	 827	 -133	 616	 easy	 right	 1	 4.215
tex	 1	 92	 10	 757	 -203	 530	 easy	 right	 1	 4.215
tex	 1	 92	 11	 778	 -182	 512	 easy	 right	 1	 4.215
tex	 1	 92	 12	 1104	 144	 608	 easy	 right	 1	 4.215
tex	 1	 92	 13	 1292	 332	 856	 easy	 right	 1	 4.215
tex	 1	 92	 14	 1214	 254	 844	 easy	 right	 1	 4.215
tex	 1	 92	 15	 709	 -251	 866	 easy	 right	 1	 4.215
tex	 1	 92	 16	 465	 -495	 882	 easy	 right	 1	 4.215
tex	 1	 92	 17	 474	 -486	 327	 easy	 right	 1	 4.215
tex	 1	 93	 1	 948	 12	 527	 hard	 left	 1	 1.218
tex	 1	 93	 2	 975	 -15	 453	 hard	 left	 1	 1.218
tex	 1	 93	 3	 1111	 -151	 879	 hard	 left	 1	 1.218
tex	 1	 93	 4	 1144	 -184	 866	 hard	 left	 1	 1.218
tex	 1	 93	 5	 1119	 -159	 849	 hard	 left	 1	 1.218
tex	 1	 93	 6	 1134	 -174	 857	 hard	 left	 1	 1.218
tex	 1	 94	 1	 947	 13	 546	 hard	 left	 1	 2.185
tex	 1	 94	 2	 1011	 -51	 659	 hard	 left	 1	 2.185
tex	 1	 94	 3	 643	 317	 610	 hard	 left	 1	 2.185
tex	 1	 94	 4	 972	 -12	 809	 hard	 left	 1	 2.185
tex	 1	 94	 5	 1045	 -85	 366	 hard	 left	 1	 2.185
tex	 1	 94	 6	 962	 -2	 302	 hard	 left	 1	 2.185
tex	 1	 94	 7	 1303	 -343	 268	 hard	 left	 1	 2.185
tex	 1	 94	 8	 1056	 -96	 517	 hard	 left	 1	 2.185
tex	 1	 95	 1	 941	 19	 540	 easy	 left	 1	 0.848
tex	 1	 95	 2	 582	 378	 535	 easy	 left	 1	 0.848
tex	 1	 95	 3	 1287	 -327	 561	 easy	 left	 1	 0.848
tex	 1	 95	 4	 1311	 -351	 561	 easy	 left	 1	 0.848
tex	 1	 95	 5	 466	 494	 515	 easy	 left	 1	 0.848
tex	 1	 96	 1	 951	 9	 532	 hard	 left	 0	 3.302
tex	 1	 96	 2	 817	 143	 527	 hard	 left	 0	 3.302
tex	 1	 96	 3	 963	 -3	 600	 hard	 left	 0	 3.302
tex	 1	 96	 4	 819	 141	 429	 hard	 left	 0	 3.302
tex	 1	 96	 5	 458	 502	 460	 hard	 left	 0	 3.302
tex	 1	 96	 6	 1065	 -105	 667	 hard	 left	 0	 3.302
tex	 1	 96	 7	 1123	 -163	 532	 hard	 left	 0	 3.302
tex	 1	 96	 8	 998	 -38	 529	 hard	 left	 0	 3.302
tex	 1	 96	 9	 1318	 -358	 462	 hard	 left	 0	 3.302
tex	 1	 96	 10	 1017	 -57	 371	 hard	 left	 0	 3.302
tex	 1	 96	 11	 1005	 -45	 630	 hard	 left	 0	 3.302
tex	 2	 17	 1	 960	 0	 555	 hard	 right	 1	 1.181
tex	 2	 17	 2	 860	 -100	 510	 hard	 right	 1	 1.181
tex	 2	 17	 3	 903	 -57	 605	 hard	 right	 1	 1.181
tex	 2	 17	 4	 622	 -338	 461	 hard	 right	 1	 1.181
tex	 2	 18	 1	 934	 -26	 542	 hard	 right	 1	 1.884
tex	 2	 18	 2	 812	 -148	 542	 hard	 right	 1	 1.884
tex	 2	 18	 3	 876	 -84	 657	 hard	 right	 1	 1.884
tex	 2	 18	 4	 571	 -389	 631	 hard	 right	 1	 1.884
tex	 2	 18	 5	 768	 -192	 740	 hard	 right	 1	 1.884
tex	 2	 18	 6	 767	 -193	 751	 hard	 right	 1	 1.884
tex	 2	 19	 1	 965	 5	 543	 easy	 right	 1	 1.117
tex	 2	 19	 2	 909	 -51	 566	 easy	 right	 1	 1.117
tex	 2	 19	 3	 993	 33	 511	 easy	 right	 1	 1.117
tex	 2	 19	 4	 1212	 252	 353	 easy	 right	 1	 1.117
tex	 2	 19	 5	 1233	 273	 348	 easy	 right	 1	 1.117
tex	 2	 20	 1	 959	 -1	 569	 hard	 right	 0	 1.611
tex	 2	 20	 2	 914	 -46	 570	 hard	 right	 0	 1.611
tex	 2	 20	 3	 817	 -143	 635	 hard	 right	 0	 1.611
tex	 2	 20	 4	 1105	 145	 789	 hard	 right	 0	 1.611
tex	 2	 20	 5	 666	 -294	 355	 hard	 right	 0	 1.611
tex	 2	 20	 6	 773	 -187	 382	 hard	 right	 0	 1.611
tex	 2	 20	 7	 642	 -318	 494	 hard	 right	 0	 1.611
tex	 2	 21	 1	 955	 -5	 567	 hard	 right	 1	 1.081
tex	 2	 21	 2	 871	 -89	 619	 hard	 right	 1	 1.081
tex	 2	 21	 3	 992	 32	 693	 hard	 right	 1	 1.081
tex	 2	 21	 4	 522	 -438	 713	 hard	 right	 1	 1.081
tex	 2	 22	 1	 962	 -2	 558	 easy	 left	 1	 1.014
tex	 2	 22	 2	 900	 60	 619	 easy	 left	 1	 1.014
tex	 2	 23	 1	 977	 -17	 561	 hard	 left	 1	 3.737
tex	 2	 23	 2	 948	 12	 565	 hard	 left	 1	 3.737
tex	 2	 23	 3	 859	 101	 554	 hard	 left	 1	 3.737
tex	 2	 23	 4	 1229	 -269	 538	 hard	 left	 1	 3.737
tex	 2	 23	 5	 1032	 -72	 611	 hard	 left	 1	 3.737
tex	 2	 23	 6	 1037	 -77	 494	 hard	 left	 1	 3.737
tex	 2	 23	 7	 1024	 -64	 394	 hard	 left	 1	 3.737
tex	 2	 23	 8	 639	 321	 800	 hard	 left	 1	 3.737
tex	 2	 23	 9	 578	 382	 687	 hard	 left	 1	 3.737
tex	 2	 23	 10	 529	 431	 509	 hard	 left	 1	 3.737
tex	 2	 23	 11	 781	 179	 471	 hard	 left	 1	 3.737
tex	 2	 23	 12	 1133	 -173	 628	 hard	 left	 1	 3.737
tex	 2	 23	 13	 1317	 -357	 737	 hard	 left	 1	 3.737
tex	 2	 23	 14	 1012	 -52	 725	 hard	 left	 1	 3.737
tex	 2	 23	 15	 752	 208	 660	 hard	 left	 1	 3.737
tex	 2	 24	 1	 971	 -11	 559	 easy	 left	 1	 1.122
tex	 2	 24	 2	 722	 238	 470	 easy	 left	 1	 1.122
tex	 2	 24	 3	 565	 395	 380	 easy	 left	 1	 1.122
tex	 2	 24	 4	 574	 386	 392	 easy	 left	 1	 1.122
tex	 2	 25	 1	 959	 -1	 547	 easy	 right	 1	 3.101
tex	 2	 25	 2	 784	 -176	 517	 easy	 right	 1	 3.101
tex	 2	 25	 3	 912	 -48	 682	 easy	 right	 1	 3.101
tex	 2	 25	 4	 938	 -22	 643	 easy	 right	 1	 3.101
tex	 2	 25	 5	 770	 -190	 743	 easy	 right	 1	 3.101
tex	 2	 25	 6	 593	 -367	 607	 easy	 right	 1	 3.101
tex	 2	 25	 7	 641	 -319	 359	 easy	 right	 1	 3.101
tex	 2	 25	 8	 528	 -432	 556	 easy	 right	 1	 3.101
tex	 2	 25	 9	 510	 -450	 667	 easy	 right	 1	 3.101
tex	 2	 25	 10	 522	 -438	 634	 easy	 right	 1	 3.101
tex	 2	 25	 11	 1175	 215	 736	 easy	 right	 1	 3.101
tex	 2	 25	 12	 1270	 310	 617	 easy	 right	 1	 3.101
tex	 2	 25	 13	 1083	 123	 750	 easy	 right	 1	 3.101
tex	 2	 26	 1	 939	 21	 560	 hard	 left	 1	 0.744
tex	 2	 26	 2	 799	 161	 536	 hard	 left	 1	 0.744
tex	 2	 26	 3	 1035	 -75	 578	 hard	 left	 1	 0.744
tex	 2	 26	 4	 1055	 -95	 586	 hard	 left	 1	 0.744
tex	 2	 27	 1	 963	 3	 570	 easy	 right	 1	 3.305
tex	 2	 27	 2	 979	 19	 562	 easy	 right	 1	 3.305
tex	 2	 27	 3	 891	 -69	 613	 easy	 right	 1	 3.305
tex	 2	 27	 4	 562	 -398	 521	 easy	 right	 1	 3.305
tex	 2	 27	 5	 900	 -60	 839	 easy	 right	 1	 3.305
tex	 2	 27	 6	 647	 -313	 697	 easy	 right	 1	 3.305
tex	 2	 27	 7	 626	 -334	 598	 easy	 right	 1	 3.305
tex	 2	 27	 8	 924	 -36	 601	 easy	 right	 1	 3.305
tex	 2	 27	 9	 712	 -248	 591	 easy	 right	 1	 3.305
tex	 2	 27	 10	 605	 -355	 349	 easy	 right	 1	 3.305
tex	 2	 27	 11	 805	 -155	 390	 easy	 right	 1	 3.305
tex	 2	 27	 12	 638	 -322	 447	 easy	 right	 1	 3.305
tex	 2	 27	 13	 869	 -91	 473	 easy	 right	 1	 3.305
tex	 2	 28	 1	 890	 70	 555	 hard	 left	 1	 2.828
tex	 2	 28	 2	 994	 -34	 530	 hard	 left	 1	 2.828
tex	 2	 28	 3	 1034	 -74	 529	 hard	 left	 1	 2.828
tex	 2	 28	 4	 936	 24	 648	 hard	 left	 1	 2.828
tex	 2	 28	 5	 868	 92	 677	 hard	 left	 1	 2.828
tex	 2	 28	 6	 623	 337	 634	 hard	 left	 1	 2.828
tex	 2	 28	 7	 834	 126	 812	 hard	 left	 1	 2.828
tex	 2	 28	 8	 1147	 -187	 811	 hard	 left	 1	 2.828
tex	 2	 28	 9	 1168	 -208	 458	 hard	 left	 1	 2.828
tex	 2	 28	 10	 1035	 -75	 357	 hard	 left	 1	 2.828
tex	 2	 28	 11	 1359	 -399	 467	 hard	 left	 1	 2.828
tex	 2	 28	 12	 1391	 -431	 497	 hard	 left	 1	 2.828
tex	 2	 29	 1	 959	 1	 550	 hard	 left	 1	 3.923
tex	 2	 29	 2	 965	 -5	 563	 hard	 left	 1	 3.923
tex	 2	 29	 3	 1414	 -454	 897	 hard	 left	 1	 3.923
tex	 2	 29	 4	 547	 413	 748	 hard	 left	 1	 3.923
tex	 2	 29	 5	 485	 475	 674	 hard	 left	 1	 3.923
tex	 2	 29	 6	 456	 504	 642	 hard	 left	 1	 3.923
tex	 2	 29	 7	 470	 490	 947	 hard	 left	 1	 3.923
tex	 2	 29	 8	 464	 496	 891	 hard	 left	 1	 3.923
tex	 2	 29	 9	 1030	 -70	 387	 hard	 left	 1	 3.923
tex	 2	 29	 10	 1296	 -336	 418	 hard	 left	 1	 3.923
tex	 2	 29	 11	 1020	 -60	 483	 hard	 left	 1	 3.923
tex	 2	 29	 12	 1059	 -99	 482	 hard	 left	 1	 3.923
tex	 2	 29	 13	 609	 351	 513	 hard	 left	 1	 3.923
tex	 2	 29	 14	 569	 391	 551	 hard	 left	 1	 3.923
tex	 2	 29	 15	 816	 144	 479	 hard	 left	 1	 3.923
tex	 2	 30	 1	 964	 4	 543	 easy	 right	 1	 0.591
tex	 2	 30	 2	 772	 -188	 493	 easy	 right	 1	 0.591
tex	 2	 30	 3	 1074	 114	 600	 easy	 right	 1	 0.591
tex	 2	 30	 4	 1028	 68	 591	 easy	 right	 1	 0.591
tex	 2	 31	 1	 961	 -1	 557	 easy	 left	 1	 2.015
tex	 2	 31	 2	 987	 -27	 566	 easy	 left	 1	 2.015
tex	 2	 31	 3	 758	 202	 508	 easy	 left	 1	 2.015
tex	 2	 31	 4	 581	 379	 516	 easy	 left	 1	 2.015
tex	 2	 31	 5	 1270	 -310	 658	 easy	 left	 1	 2.015
tex	 2	 31	 6	 1039	 -79	 734	 easy	 left	 1	 2.015
tex	 2	 31	 7	 949	 11	 601	 easy	 left	 1	 2.015
tex	 2	 31	 8	 1290	 -330	 904	 easy	 left	 1	 2.015
tex	 2	 31	 9	 1031	 -71	 632	 easy	 left	 1	 2.015
tex	 2	 31	 10	 1004	 -44	 398	 easy	 left	 1	 2.015
tex	 2	 32	 1	 965	 5	 563	 hard	 right	 1	 3.945
tex	 2	 32	 2	 867	 -93	 598	 hard	 right	 1	 3.945
tex	 2	 32	 3	 777	 -183	 365	 hard	 right	 1	 3.945
tex	 2	 32	 4	 933	 -27	 605	 hard	 right	 1	 3.945
tex	 2	 32	 5	 630	 -330	 628	 hard	 right	 1	 3.945
tex	 2	 32	 6	 891	 -69	 649	 hard	 right	 1	 3.945
tex	 2	 32	 7	 1097	 137	 649	 hard	 right	 1	 3.945
tex	 2	 32	 8	 1172	 212	 788	 hard	 right	 1	 3.945
tex	 2	 32	 9	 1079	 119	 929	 hard	 right	 1	 3.945
tex	 2	 32	 10	 795	 -165	 892	 hard	 right	 1	 3.945
tex	 2	 32	 11	 669	 -291	 466	 hard	 right	 1	 3.945
tex	 2	 32	 12	 906	 -54	 599	 hard	 right	 1	 3.945
tex	 2	 32	 13	 875	 -85	 614	 hard	 right	 1	 3.945
tex	 2	 33	 1	 975	 -15	 566	 hard	 left	 1	 3.673
tex	 2	 33	 2	 944	 16	 556	 hard	 left	 1	 3.673
tex	 2	 33	 3	 608	 352	 548	 hard	 left	 1	 3.673
tex	 2	 33	 4	 1017	 -57	 440	 hard	 left	 1	 3.673
tex	 2	 33	 5	 1236	 -276	 523	 hard	 left	 1	 3.673
tex	 2	 33	 6	 1055	 -95	 699	 hard	 left	 1	 3.673
tex	 2	 33	 7	 1342	 -382	 874	 hard	 left	 1	 3.673
tex	 2	 33	 8	 1164	 -204	 895	 hard	 left	 1	 3.673
tex	 2	 33	 9	 1300	 -340	 625	 hard	 left	 1	 3.673
tex	 2	 33	 10	 1073	 -113	 651	 hard	 left	 1	 3.673
tex	 2	 33	 11	 946	 14	 686	 hard	 left	 1	 3.673
tex	 2	 34	 1	 980	 20	 581	 hard	 right	 1	 2.579
tex	 2	 34	 2	 939	 -21	 572	 hard	 right	 1	 2.579
tex	 2	 34	 3	 1390	 430	 801	 hard	 right	 1	 2.579
tex	 2	 34	 4	 645	 -315	 617	 hard	 right	 1	 2.579
tex	 2	 34	 5	 577	 -383	 496	 hard	 right	 1	 2.579
tex	 2	 34	 6	 607	 -353	 460	 hard	 right	 1	 2.579
tex	 2	 34	 7	 524	 -436	 566	 hard	 right	 1	 2.579
tex	 2	 34	 8	 789	 -171	 303	 hard	 right	 1	 2.579
tex	 2	 34	 9	 757	 -203	 408	 hard	 right	 1	 2.579
tex	 2	 34	 10	 518	 -442	 273	 hard	 right	 1	 2.579
tex	 2	 35	 1	 986	 26	 548	 hard	 right	 1	 2.702
tex	 2	 35	 2	 923	 -37	 538	 hard	 right	 1	 2.702
tex	 2	 35	 3	 849	 -111	 503	 hard	 right	 1	 2.702
tex	 2	 35	 4	 679	 -281	 611	 hard	 right	 1	 2.702
tex	 2	 35	 5	 986	 26	 693	 hard	 right	 1	 2.702
tex	 2	 35	 6	 872	 -88	 654	 hard	 right	 1	 2.702
tex	 2	 35	 7	 651	 -309	 406	 hard	 right	 1	 2.702
tex	 2	 35	 8	 576	 -384	 582	 hard	 right	 1	 2.702
tex	 2	 35	 9	 1029	 69	 468	 hard	 right	 1	 2.702
tex	 2	 35	 10	 937	 -23	 450	 hard	 right	 1	 2.702
tex	 2	 36	 1	 956	 -4	 543	 hard	 right	 1	 3.834
tex	 2	 36	 2	 903	 -57	 566	 hard	 right	 1	 3.834
tex	 2	 36	 3	 861	 -99	 523	 hard	 right	 1	 3.834
tex	 2	 36	 4	 612	 -348	 557	 hard	 right	 1	 3.834
tex	 2	 36	 5	 848	 -112	 696	 hard	 right	 1	 3.834
tex	 2	 36	 6	 662	 -298	 410	 hard	 right	 1	 3.834
tex	 2	 36	 7	 559	 -401	 925	 hard	 right	 1	 3.834
tex	 2	 36	 8	 1093	 133	 902	 hard	 right	 1	 3.834
tex	 2	 36	 9	 1150	 190	 774	 hard	 right	 1	 3.834
tex	 2	 36	 10	 1430	 470	 815	 hard	 right	 1	 3.834
tex	 2	 36	 11	 675	 -285	 347	 hard	 right	 1	 3.834
tex	 2	 36	 12	 586	 -374	 255	 hard	 right	 1	 3.834
tex	 2	 36	 13	 746	 -214	 509	 hard	 right	 1	 3.834
tex	 2	 37	 1	 963	 3	 566	 easy	 right	 1	 2.158
tex	 2	 37	 2	 961	 1	 534	 easy	 right	 1	 2.158
tex	 2	 37	 3	 841	 -119	 489	 easy	 right	 1	 2.158
tex	 2	 37	 4	 510	 -450	 537	 easy	 right	 1	 2.158
tex	 2	 37	 5	 670	 -290	 518	 easy	 right	 1	 2.158
tex	 2	 37	 6	 485	 -475	 551	 easy	 right	 1	 2.158
tex	 2	 37	 7	 1068	 108	 510	 easy	 right	 1	 2.158
tex	 2	 37	 8	 1193	 233	 712	 easy	 right	 1	 2.158
tex	 2	 37	 9	 1251	 291	 757	 easy	 right	 1	 2.158
tex	 2	 38	 1	 961	 1	 544	 easy	 right	 1	 1.539
tex	 2	 38	 2	 986	 26	 566	 easy	 right	 1	 1.539
tex	 2	 38	 3	 869	 -91	 539	 easy	 right	 1	 1.539
tex	 2	 38	 4	 712	 -248	 442	 easy	 right	 1	 1.539
tex	 2	 38	 5	 566	 -394	 467	 easy	 right	 1	 1.539
tex	 2	 38	 6	 1112	 152	 529	 easy	 right	 1	 1.539
tex	 2	 38	 7	 1261	 301	 716	 easy	 right	 1	 1.539
tex	 2	 38	 8	 598	 -362	 864	 easy	 right	 1	 1.539
tex	 2	 39	 1	 969	 -9	 567	 hard	 left	 1	 2.144
tex	 2	 39	 2	 789	 171	 550	 hard	 left	 1	 2.144
tex	 2	 39	 3	 1135	 -175	 500	 hard	 left	 1	 2.144
tex	 2	 39	 4	 1041	 -81	 456	 hard	 left	 1	 2.144
tex	 2	 39	 5	 1044	 -84	 686	 hard	 left	 1	 2.144
tex	 2	 39	 6	 1061	 -101	 655	 hard	 left	 1	 2.144
tex	 2	 39	 7	 1272	 -312	 780	 hard	 left	 1	 2.144
tex	 2	 39	 8	 1128	 -168	 584	 hard	 left	 1	 2.144
tex	 2	 40	 1	 970	 10	 577	 hard	 right	 1	 1.313
tex	 2	 40	 2	 794	 -166	 634	 hard	 right	 1	 1.313
tex	 2	 40	 3	 648	 -312	 578	 hard	 right	 1	 1.313
tex	 2	 40	 4	 515	 -445	 578	 hard	 right	 1	 1.313
tex	 2	 41	 1	 941	 19	 575	 easy	 left	 1	 0.661
tex	 2	 41	 2	 682	 278	 578	 easy	 left	 1	 0.661
tex	 2	 42	 1	 949	 -11	 567	 hard	 right	 1	 0.963
tex	 2	 42	 2	 847	 -113	 584	 hard	 right	 1	 0.963
tex	 2	 42	 3	 608	 -352	 588	 hard	 right	 1	 0.963
tex	 2	 42	 4	 974	 14	 472	 hard	 right	 1	 0.963
tex	 2	 42	 5	 783	 -177	 413	 hard	 right	 1	 0.963
tex	 2	 42	 6	 766	 -194	 383	 hard	 right	 1	 0.963
tex	 2	 43	 1	 965	 -5	 564	 hard	 left	 1	 3.455
tex	 2	 43	 2	 781	 179	 464	 hard	 left	 1	 3.455
tex	 2	 43	 3	 1009	 -49	 469	 hard	 left	 1	 3.455
tex	 2	 43	 4	 1245	 -285	 705	 hard	 left	 1	 3.455
tex	 2	 43	 5	 1384	 -424	 439	 hard	 left	 1	 3.455
tex	 2	 43	 6	 692	 268	 363	 hard	 left	 1	 3.455
tex	 2	 43	 7	 495	 465	 454	 hard	 left	 1	 3.455
tex	 2	 43	 8	 639	 321	 737	 hard	 left	 1	 3.455
tex	 2	 43	 9	 969	 -9	 771	 hard	 left	 1	 3.455
tex	 2	 43	 10	 740	 220	 672	 hard	 left	 1	 3.455
tex	 2	 43	 11	 1113	 -153	 842	 hard	 left	 1	 3.455
tex	 2	 43	 12	 1109	 -149	 825	 hard	 left	 1	 3.455
tex	 2	 43	 13	 1056	 -96	 795	 hard	 left	 1	 3.455
tex	 2	 44	 1	 969	 9	 566	 hard	 right	 1	 1.700
tex	 2	 44	 2	 829	 -131	 610	 hard	 right	 1	 1.700
tex	 2	 44	 3	 521	 -439	 498	 hard	 right	 1	 1.700
tex	 2	 44	 4	 732	 -228	 654	 hard	 right	 1	 1.700
tex	 2	 44	 5	 1090	 130	 619	 hard	 right	 1	 1.700
tex	 2	 44	 6	 1187	 227	 506	 hard	 right	 1	 1.700
tex	 2	 45	 1	 952	 8	 562	 easy	 left	 1	 0.978
tex	 2	 45	 2	 1023	 -63	 562	 easy	 left	 1	 0.978
tex	 2	 45	 3	 804	 156	 542	 easy	 left	 1	 0.978
tex	 2	 45	 4	 1017	 -57	 524	 easy	 left	 1	 0.978
tex	 2	 45	 5	 1121	 -161	 489	 easy	 left	 1	 0.978
tex	 2	 46	 1	 950	 -10	 540	 easy	 right	 1	 0.573
tex	 2	 46	 2	 1030	 70	 726	 easy	 right	 1	 0.573
tex	 2	 46	 3	 1063	 103	 817	 easy	 right	 1	 0.573
tex	 2	 47	 1	 949	 11	 555	 hard	 left	 0	 1.520
tex	 2	 47	 2	 1065	 -105	 629	 hard	 left	 0	 1.520
tex	 2	 47	 3	 589	 371	 749	 hard	 left	 0	 1.520
tex	 2	 47	 4	 761	 199	 746	 hard	 left	 0	 1.520
tex	 2	 47	 5	 650	 310	 372	 hard	 left	 0	 1.520
tex	 2	 47	 6	 1145	 -185	 370	 hard	 left	 0	 1.520
tex	 2	 48	 1	 951	 9	 546	 easy	 left	 1	 1.287
tex	 2	 48	 2	 1017	 -57	 523	 easy	 left	 1	 1.287
tex	 2	 48	 3	 976	 -16	 648	 easy	 left	 1	 1.287
tex	 2	 48	 4	 564	 396	 401	 easy	 left	 1	 1.287
tex	 2	 48	 5	 1077	 -117	 421	 easy	 left	 1	 1.287
tex	 2	 49	 1	 976	 -16	 556	 easy	 left	 1	 1.041
tex	 2	 49	 2	 884	 76	 661	 easy	 left	 1	 1.041
tex	 2	 49	 3	 1237	 -277	 580	 easy	 left	 1	 1.041
tex	 2	 49	 4	 1192	 -232	 564	 easy	 left	 1	 1.041
tex	 2	 49	 5	 693	 267	 452	 easy	 left	 1	 1.041
tex	 2	 50	 1	 971	 11	 554	 hard	 right	 1	 2.109
tex	 2	 50	 2	 869	 -91	 565	 hard	 right	 1	 2.109
tex	 2	 50	 3	 779	 -181	 476	 hard	 right	 1	 2.109
tex	 2	 50	 4	 827	 -133	 464	 hard	 right	 1	 2.109
tex	 2	 50	 5	 542	 -418	 452	 hard	 right	 1	 2.109
tex	 2	 50	 6	 640	 -320	 695	 hard	 right	 1	 2.109
tex	 2	 50	 7	 490	 -470	 283	 hard	 right	 1	 2.109
tex	 2	 50	 8	 507	 -453	 242	 hard	 right	 1	 2.109
tex	 2	 50	 9	 462	 -498	 458	 hard	 right	 1	 2.109
tex	 2	 50	 10	 501	 -459	 433	 hard	 right	 1	 2.109
tex	 2	 51	 1	 967	 -7	 570	 hard	 left	 1	 2.180
tex	 2	 51	 2	 945	 15	 544	 hard	 left	 1	 2.180
tex	 2	 51	 3	 1038	 -78	 703	 hard	 left	 1	 2.180
tex	 2	 51	 4	 1074	 -114	 752	 hard	 left	 1	 2.180
tex	 2	 51	 5	 1011	 -51	 686	 hard	 left	 1	 2.180
tex	 2	 52	 1	 983	 -23	 574	 easy	 left	 1	 2.598
tex	 2	 52	 2	 963	 -3	 590	 easy	 left	 1	 2.598
tex	 2	 52	 3	 1000	 -40	 615	 easy	 left	 1	 2.598
tex	 2	 52	 4	 599	 361	 537	 easy	 left	 1	 2.598
tex	 2	 52	 5	 971	 -11	 633	 easy	 left	 1	 2.598
tex	 2	 52	 6	 1103	 -143	 592	 easy	 left	 1	 2.598
tex	 2	 52	 7	 1251	 -291	 788	 easy	 left	 1	 2.598
tex	 2	 52	 8	 1098	 -138	 687	 easy	 left	 1	 2.598
tex	 2	 52	 9	 1035	 -75	 607	 easy	 left	 1	 2.598
tex	 2	 52	 10	 1020	 -60	 404	 easy	 left	 1	 2.598
tex	 2	 52	 11	 1089	 -129	 358	 easy	 left	 1	 2.598
tex	 2	 53	 1	 958	 2	 563	 hard	 left	 1	 1.184
tex	 2	 53	 2	 991	 -31	 573	 hard	 left	 1	 1.184
tex	 2	 53	 3	 595	 365	 641	 hard	 left	 1	 1.184
tex	 2	 53	 4	 741	 219	 845	 hard	 left	 1	 1.184
tex	 2	 53	 5	 1060	 -100	 666	 hard	 left	 1	 1.184
tex	 2	 54	 1	 954	 -6	 556	 easy	 right	 1	 1.887
tex	 2	 54	 2	 980	 20	 562	 easy	 right	 1	 1.887
tex	 2	 54	 3	 847	 -113	 555	 easy	 right	 1	 1.887
tex	 2	 54	 4	 868	 -92	 471	 easy	 right	 1	 1.887
tex	 2	 54	 5	 554	 -406	 427	 easy	 right	 1	 1.887
tex	 2	 54	 6	 526	 -434	 397	 easy	 right	 1	 1.887
tex	 2	 54	 7	 731	 -229	 634	 easy	 right	 1	 1.887
tex	 2	 54	 8	 1112	 152	 803	 easy	 right	 1	 1.887
tex	 2	 54	 9	 988	 28	 512	 easy	 right	 1	 1.887
tex	 2	 55	 1	 942	 18	 563	 easy	 left	 1	 0.827
tex	 2	 55	 2	 922	 38	 559	 easy	 left	 1	 0.827
tex	 2	 55	 3	 807	 153	 697	 easy	 left	 1	 0.827
tex	 2	 55	 4	 708	 252	 822	 easy	 left	 1	 0.827
tex	 2	 55	 5	 730	 230	 846	 easy	 left	 1	 0.827
tex	 2	 56	 1	 950	 -10	 585	 easy	 right	 1	 2.747
tex	 2	 56	 2	 877	 -83	 780	 easy	 right	 1	 2.747
tex	 2	 56	 3	 876	 -84	 636	 easy	 right	 1	 2.747
tex	 2	 56	 4	 502	 -458	 503	 easy	 right	 1	 2.747
tex	 2	 56	 5	 886	 -74	 567	 easy	 right	 1	 2.747
tex	 2	 56	 6	 697	 -263	 565	 easy	 right	 1	 2.747
tex	 2	 56	 7	 1202	 242	 748	 easy	 right	 1	 2.747
tex	 2	 56	 8	 1233	 273	 528	 easy	 right	 1	 2.747
tex	 2	 56	 9	 1161	 201	 497	 easy	 right	 1	 2.747
tex	 2	 56	 10	 1411	 451	 527	 easy	 right	 1	 2.747
tex	 2	 56	 11	 1481	 521	 529	 easy	 right	 1	 2.747
tex	 2	 56	 12	 1316	 356	 747	 easy	 right	 1	 2.747
tex	 2	 56	 13	 814	 -146	 642	 easy	 right	 1	 2.747
tex	 2	 57	 1	 977	 -17	 596	 hard	 left	 1	 1.709
tex	 2	 57	 2	 1353	 -393	 858	 hard	 left	 1	 1.709
tex	 2	 57	 3	 1073	 -113	 488	 hard	 left	 1	 1.709
tex	 2	 57	 4	 653	 307	 512	 hard	 left	 1	 1.709
tex	 2	 57	 5	 935	 25	 548	 hard	 left	 1	 1.709
tex	 2	 58	 1	 962	 2	 546	 hard	 right	 1	 1.487
tex	 2	 58	 2	 836	 -124	 515	 hard	 right	 1	 1.487
tex	 2	 58	 3	 627	 -333	 512	 hard	 right	 1	 1.487
tex	 2	 58	 4	 925	 -35	 624	 hard	 right	 1	 1.487
tex	 2	 58	 5	 975	 15	 644	 hard	 right	 1	 1.487
tex	 2	 58	 6	 951	 -9	 649	 hard	 right	 1	 1.487
tex	 2	 58	 7	 1057	 97	 789	 hard	 right	 1	 1.487
tex	 2	 59	 1	 960	 0	 566	 easy	 left	 1	 0.625
tex	 2	 59	 2	 606	 354	 725	 easy	 left	 1	 0.625
tex	 2	 59	 3	 541	 419	 749	 easy	 left	 1	 0.625
tex	 2	 60	 1	 961	 -1	 584	 easy	 left	 1	 1.291
tex	 2	 60	 2	 729	 231	 627	 easy	 left	 1	 1.291
tex	 2	 60	 3	 570	 390	 741	 easy	 left	 1	 1.291
tex	 2	 60	 4	 1060	 -100	 743	 easy	 left	 1	 1.291
tex	 2	 60	 5	 1133	 -173	 482	 easy	 left	 1	 1.291
tex	 2	 61	 1	 975	 -15	 577	 hard	 left	 1	 3.339
tex	 2	 61	 2	 966	 -6	 571	 hard	 left	 1	 3.339
tex	 2	 61	 3	 1003	 -43	 579	 hard	 left	 1	 3.339
tex	 2	 61	 4	 604	 356	 506	 hard	 left	 1	 3.339
tex	 2	 61	 5	 1207	 -247	 700	 hard	 left	 1	 3.339
tex	 2	 61	 6	 1399	 -439	 868	 hard	 left	 1	 3.339
tex	 2	 61	 7	 1310	 -350	 853	 hard	 left	 1	 3.339
tex	 2	 61	 8	 1217	 -257	 375	 hard	 left	 1	 3.339
tex	 2	 61	 9	 647	 313	 250	 hard	 left	 1	 3.339
tex	 2	 61	 10	 924	 36	 358	 hard	 left	 1	 3.339
tex	 2	 61	 11	 1076	 -116	 409	 hard	 left	 1	 3.339
tex	 2	 61	 12	 1028	 -68	 485	 hard	 left	 1	 3.339
tex	 2	 62	 1	 983	 23	 569	 easy	 right	 1	 0.533
tex	 2	 62	 2	 949	 -11	 568	 easy	 right	 1	 0.533
tex	 2	 62	 3	 934	 -26	 585	 easy	 right	 1	 0.533
tex	 2	 62	 4	 1374	 414	 468	 easy	 right	 1	 0.533
tex	 2	 62	 5	 1407	 447	 465	 easy	 right	 1	 0.533
tex	 2	 63	 1	 947	 -13	 584	 easy	 right	 1	 0.536
tex	 2	 63	 2	 965	 5	 568	 easy	 right	 1	 0.536
tex	 2	 63	 3	 1259	 299	 665	 easy	 right	 1	 0.536
tex	 2	 63	 4	 1284	 324	 671	 easy	 right	 1	 0.536
tex	 2	 64	 1	 985	 25	 608	 easy	 right	 1	 0.492
tex	 2	 64	 2	 1289	 329	 624	 easy	 right	 1	 0.492
tex	 2	 64	 3	 1307	 347	 603	 easy	 right	 1	 0.492
tex	 2	 65	 1	 997	 -37	 560	 hard	 left	 1	 1.182
tex	 2	 65	 2	 1141	 -181	 597	 hard	 left	 1	 1.182
tex	 2	 65	 3	 762	 198	 568	 hard	 left	 1	 1.182
tex	 2	 65	 4	 1069	 -109	 383	 hard	 left	 1	 1.182
tex	 2	 65	 5	 1017	 -57	 342	 hard	 left	 1	 1.182
tex	 2	 65	 6	 525	 435	 389	 hard	 left	 1	 1.182
tex	 2	 66	 1	 958	 -2	 564	 hard	 right	 1	 1.151
tex	 2	 66	 2	 973	 13	 555	 hard	 right	 1	 1.151
tex	 2	 66	 3	 841	 -119	 616	 hard	 right	 1	 1.151
tex	 2	 66	 4	 521	 -439	 573	 hard	 right	 1	 1.151
tex	 2	 66	 5	 522	 -438	 296	 hard	 right	 1	 1.151
tex	 2	 66	 6	 527	 -433	 254	 hard	 right	 1	 1.151
tex	 2	 67	 1	 959	 -1	 536	 easy	 right	 1	 2.238
tex	 2	 67	 2	 842	 -118	 477	 easy	 right	 1	 2.238
tex	 2	 67	 3	 581	 -379	 443	 easy	 right	 1	 2.238
tex	 2	 67	 4	 863	 -97	 669	 easy	 right	 1	 2.238
tex	 2	 67	 5	 588	 -372	 254	 easy	 right	 1	 2.238
tex	 2	 67	 6	 563	 -397	 231	 easy	 right	 1	 2.238
tex	 2	 67	 7	 557	 -403	 177	 easy	 right	 1	 2.238
tex	 2	 67	 8	 432	 -528	 360	 easy	 right	 1	 2.238
tex	 2	 67	 9	 1098	 138	 775	 easy	 right	 1	 2.238
tex	 2	 67	 10	 1248	 288	 918	 easy	 right	 1	 2.238
tex	 2	 68	 1	 972	 12	 555	 hard	 right	 1	 0.830
tex	 2	 68	 2	 840	 -120	 552	 hard	 right	 1	 0.830
tex	 2	 68	 3	 736	 -224	 309	 hard	 right	 1	 0.830
tex	 2	 68	 4	 760	 -200	 293	 hard	 right	 1	 0.830
tex	 2	 69	 1	 943	 17	 539	 easy	 left	 1	 2.470
tex	 2	 69	 2	 874	 86	 433	 easy	 left	 1	 2.470
tex	 2	 69	 3	 1123	 -163	 774	 easy	 left	 1	 2.470
tex	 2	 69	 4	 1052	 -92	 749	 easy	 left	 1	 2.470
tex	 2	 69	 5	 1286	 -326	 734	 easy	 left	 1	 2.470
tex	 2	 69	 6	 1198	 -238	 765	 easy	 left	 1	 2.470
tex	 2	 69	 7	 1156	 -196	 484	 easy	 left	 1	 2.470
tex	 2	 69	 8	 1391	 -431	 630	 easy	 left	 1	 2.470
tex	 2	 69	 9	 708	 252	 685	 easy	 left	 1	 2.470
tex	 2	 69	 10	 533	 427	 738	 easy	 left	 1	 2.470
tex	 2	 70	 1	 967	 7	 558	 easy	 right	 1	 0.736
tex	 2	 70	 2	 1186	 226	 502	 easy	 right	 1	 0.736
tex	 2	 70	 3	 1393	 433	 702	 easy	 right	 1	 0.736
tex	 2	 70	 4	 896	 -64	 591	 easy	 right	 1	 0.736
tex	 2	 70	 5	 817	 -143	 571	 easy	 right	 1	 0.736
tex	 2	 71	 1	 975	 15	 553	 easy	 right	 1	 1.616
tex	 2	 71	 2	 957	 -3	 560	 easy	 right	 1	 1.616
tex	 2	 71	 3	 710	 -250	 582	 easy	 right	 1	 1.616
tex	 2	 71	 4	 515	 -445	 286	 easy	 right	 1	 1.616
tex	 2	 71	 5	 818	 -142	 226	 easy	 right	 1	 1.616
tex	 2	 71	 6	 677	 -283	 804	 easy	 right	 1	 1.616
tex	 2	 71	 7	 688	 -272	 746	 easy	 right	 1	 1.616
tex	 2	 71	 8	 1230	 270	 840	 easy	 right	 1	 1.616
tex	 2	 72	 1	 966	 -6	 564	 easy	 left	 1	 2.225
tex	 2	 72	 2	 1062	 -102	 564	 easy	 left	 1	 2.225
tex	 2	 72	 3	 631	 329	 828	 easy	 left	 1	 2.225
tex	 2	 72	 4	 1170	 -210	 579	 easy	 left	 1	 2.225
tex	 2	 72	 5	 1005	 -45	 300	 easy	 left	 1	 2.225
tex	 2	 72	 6	 1165	 -205	 529	 easy	 left	 1	 2.225
tex	 2	 72	 7	 1043	 -83	 690	 easy	 left	 1	 2.225
tex	 2	 73	 1	 951	 -9	 594	 easy	 right	 1	 0.529
tex	 2	 73	 2	 847	 -113	 621	 easy	 right	 1	 0.529
tex	 2	 73	 3	 1024	 64	 829	 easy	 right	 1	 0.529
tex	 2	 74	 1	 973	 -13	 566	 easy	 left	 1	 1.949
tex	 2	 74	 2	 1045	 -85	 783	 easy	 left	 1	 1.949
tex	 2	 74	 3	 531	 429	 426	 easy	 left	 1	 1.949
tex	 2	 74	 4	 984	 -24	 784	 easy	 left	 1	 1.949
tex	 2	 74	 5	 1009	 -49	 544	 easy	 left	 1	 1.949
tex	 2	 74	 6	 972	 -12	 515	 easy	 left	 1	 1.949
tex	 2	 74	 7	 620	 340	 243	 easy	 left	 1	 1.949
tex	 2	 74	 8	 1003	 -43	 356	 easy	 left	 1	 1.949
tex	 2	 75	 1	 976	 -16	 566	 hard	 left	 1	 0.981
tex	 2	 75	 2	 1038	 -78	 594	 hard	 left	 1	 0.981
tex	 2	 75	 3	 1049	 -89	 420	 hard	 left	 1	 0.981
tex	 2	 75	 4	 1087	 -127	 402	 hard	 left	 1	 0.981
tex	 2	 76	 1	 920	 40	 491	 easy	 left	 1	 4.674
tex	 2	 76	 2	 1015	 -55	 432	 easy	 left	 1	 4.674
tex	 2	 76	 3	 1025	 -65	 595	 easy	 left	 1	 4.674
tex	 2	 76	 4	 1086	 -126	 703	 easy	 left	 1	 4.674
tex	 2	 76	 5	 1077	 -117	 623	 easy	 left	 1	 4.674
tex	 2	 76	 6	 802	 158	 559	 easy	 left	 1	 4.674
tex	 2	 76	 7	 641	 319	 639	 easy	 left	 1	 4.674
tex	 2	 76	 8	 729	 231	 564	 easy	 left	 1	 4.674
tex	 2	 76	 9	 1016	 -56	 390	 easy	 left	 1	 4.674
tex	 2	 76	 10	 896	 64	 773	 easy	 left	 1	 4.674
tex	 2	 76	 11	 985	 -25	 818	 easy	 left	 1	 4.674
tex	 2	 76	 12	 1345	 -385	 686	 easy	 left	 1	 4.674
tex	 2	 76	 13	 1197	 -237	 666	 easy	 left	 1	 4.674
tex	 2	 77	 1	 945	 15	 566	 hard	 left	 1	 0.598
tex	 2	 77	 2	 1043	 -83	 600	 hard	 left	 1	 0.598
tex	 2	 78	 1	 958	 -2	 562	 hard	 right	 1	 1.500
tex	 2	 78	 2	 815	 -145	 572	 hard	 right	 1	 1.500
tex	 2	 78	 3	 734	 -226	 514	 hard	 right	 1	 1.500
tex	 2	 78	 4	 1152	 192	 639	 hard	 right	 1	 1.500
tex	 2	 78	 5	 980	 20	 578	 hard	 right	 1	 1.500
tex	 2	 78	 6	 836	 -124	 544	 hard	 right	 1	 1.500
tex	 2	 79	 1	 956	 4	 576	 easy	 left	 1	 0.648
tex	 2	 79	 2	 867	 93	 500	 easy	 left	 1	 0.648
tex	 2	 79	 3	 845	 115	 478	 easy	 left	 1	 0.648
tex	 2	 79	 4	 869	 91	 484	 easy	 left	 1	 0.648
tex	 2	 80	 1	 946	 -14	 578	 hard	 right	 1	 1.556
tex	 2	 80	 2	 839	 -121	 527	 hard	 right	 1	 1.556
tex	 2	 80	 3	 583	 -377	 483	 hard	 right	 1	 1.556
tex	 2	 80	 4	 624	 -336	 279	 hard	 right	 1	 1.556
tex	 2	 80	 5	 730	 -230	 314	 hard	 right	 1	 1.556
tex	 2	 80	 6	 733	 -227	 290	 hard	 right	 1	 1.556
tex	 2	 81	 1	 957	 -3	 554	 hard	 right	 1	 4.708
tex	 2	 81	 2	 865	 -95	 425	 hard	 right	 1	 4.708
tex	 2	 81	 3	 630	 -330	 439	 hard	 right	 1	 4.708
tex	 2	 81	 4	 1009	 49	 387	 hard	 right	 1	 4.708
tex	 2	 81	 5	 1164	 204	 514	 hard	 right	 1	 4.708
tex	 2	 81	 6	 609	 -351	 321	 hard	 right	 1	 4.708
tex	 2	 81	 7	 575	 -385	 394	 hard	 right	 1	 4.708
tex	 2	 81	 8	 716	 -244	 482	 hard	 right	 1	 4.708
tex	 2	 81	 9	 753	 -207	 615	 hard	 right	 1	 4.708
tex	 2	 81	 10	 603	 -357	 570	 hard	 right	 1	 4.708
tex	 2	 81	 11	 708	 -252	 821	 hard	 right	 1	 4.708
tex	 2	 81	 12	 827	 -133	 832	 hard	 right	 1	 4.708
tex	 2	 81	 13	 764	 -196	 898	 hard	 right	 1	 4.708
tex	 2	 81	 14	 1008	 48	 701	 hard	 right	 1	 4.708
tex	 2	 81	 15	 910	 -50	 624	 hard	 right	 1	 4.708
tex	 2	 82	 1	 940	 -20	 548	 easy	 right	 1	 0.664
tex	 2	 82	 2	 747	 -213	 473	 easy	 right	 1	 0.664
tex	 2	 82	 3	 1124	 164	 315	 easy	 right	 1	 0.664
tex	 2	 82	 4	 1160	 200	 290	 easy	 right	 1	 0.664
tex	 2	 83	 1	 966	 6	 538	 easy	 right	 1	 2.948
tex	 2	 83	 2	 869	 -91	 466	 easy	 right	 1	 2.948
tex	 2	 83	 3	 754	 -206	 451	 easy	 right	 1	 2.948
tex	 2	 83	 4	 533	 -427	 642	 easy	 right	 1	 2.948
tex	 2	 83	 5	 611	 -349	 518	 easy	 right	 1	 2.948
tex	 2	 83	 6	 758	 -202	 425	 easy	 right	 1	 2.948
tex	 2	 83	 7	 662	 -298	 417	 easy	 right	 1	 2.948
tex	 2	 83	 8	 868	 -92	 391	 easy	 right	 1	 2.948
tex	 2	 83	 9	 1060	 100	 376	 easy	 right	 1	 2.948
tex	 2	 83	 10	 1108	 148	 723	 easy	 right	 1	 2.948
tex	 2	 83	 11	 899	 -61	 742	 easy	 right	 1	 2.948
tex	 2	 84	 1	 972	 -12	 521	 easy	 left	 1	 0.571
tex	 2	 84	 2	 917	 43	 520	 easy	 left	 1	 0.571
tex	 2	 84	 3	 611	 349	 746	 easy	 left	 1	 0.571
tex	 2	 84	 4	 575	 385	 710	 easy	 left	 1	 0.571
tex	 2	 85	 1	 968	 -8	 566	 easy	 left	 1	 0.746
tex	 2	 85	 2	 780	 180	 618	 easy	 left	 1	 0.746
tex	 2	 85	 3	 804	 156	 278	 easy	 left	 1	 0.746
tex	 2	 85	 4	 772	 188	 307	 easy	 left	 1	 0.746
tex	 2	 86	 1	 876	 84	 419	 hard	 left	 1	 0.993
tex	 2	 86	 2	 872	 88	 431	 hard	 left	 1	 0.993
tex	 2	 86	 3	 1290	 -330	 432	 hard	 left	 1	 0.993
tex	 2	 86	 4	 1386	 -426	 442	 hard	 left	 1	 0.993
tex	 2	 87	 1	 940	 -20	 504	 hard	 right	 1	 1.970
tex	 2	 87	 2	 794	 -166	 465	 hard	 right	 1	 1.970
tex	 2	 87	 3	 1283	 323	 386	 hard	 right	 1	 1.970
tex	 2	 87	 4	 1123	 163	 684	 hard	 right	 1	 1.970
tex	 2	 87	 5	 1132	 172	 625	 hard	 right	 1	 1.970
tex	 2	 87	 6	 640	 -320	 637	 hard	 right	 1	 1.970
tex	 2	 87	 7	 549	 -411	 630	 hard	 right	 1	 1.970
tex	 2	 88	 1	 969	 9	 556	 easy	 right	 1	 0.527
tex	 2	 88	 2	 1232	 272	 591	 easy	 right	 1	 0.527
tex	 2	 88	 3	 1210	 250	 580	 easy	 right	 1	 0.527
tex	 2	 89	 1	 963	 3	 563	 hard	 right	 1	 0.861
tex	 2	 89	 2	 787	 -173	 514	 hard	 right	 1	 0.861
tex	 2	 89	 3	 774	 -186	 370	 hard	 right	 1	 0.861
tex	 2	 90	 1	 939	 21	 531	 hard	 left	 1	 1.756
tex	 2	 90	 2	 1095	 -135	 518	 hard	 left	 1	 1.756
tex	 2	 90	 3	 1023	 -63	 456	 hard	 left	 1	 1.756
tex	 2	 90	 4	 1012	 -52	 382	 hard	 left	 1	 1.756
tex	 2	 90	 5	 1260	 -300	 570	 hard	 left	 1	 1.756
tex	 2	 90	 6	 588	 372	 741	 hard	 left	 1	 1.756
tex	 2	 90	 7	 1315	 -355	 570	 hard	 left	 1	 1.756
tex	 2	 90	 8	 1346	 -386	 560	 hard	 left	 1	 1.756
tex	 2	 91	 1	 956	 4	 559	 easy	 left	 0	 1.327
tex	 2	 91	 2	 577	 383	 646	 easy	 left	 0	 1.327
tex	 2	 91	 3	 504	 456	 700	 easy	 left	 0	 1.327
tex	 2	 91	 4	 536	 424	 685	 easy	 left	 0	 1.327
tex	 2	 91	 5	 530	 430	 695	 easy	 left	 0	 1.327
tex	 2	 91	 6	 534	 426	 669	 easy	 left	 0	 1.327
tex	 2	 92	 1	 955	 -5	 598	 easy	 right	 1	 1.400
tex	 2	 92	 2	 665	 -295	 648	 easy	 right	 1	 1.400
tex	 2	 92	 3	 847	 -113	 424	 easy	 right	 1	 1.400
tex	 2	 92	 4	 1105	 145	 328	 easy	 right	 1	 1.400
tex	 2	 92	 5	 1009	 49	 693	 easy	 right	 1	 1.400
tex	 2	 92	 6	 1157	 197	 704	 easy	 right	 1	 1.400
tex	 2	 93	 1	 944	 16	 562	 hard	 left	 1	 0.893
tex	 2	 93	 2	 1097	 -137	 747	 hard	 left	 1	 0.893
tex	 2	 93	 3	 1139	 -179	 881	 hard	 left	 1	 0.893
tex	 2	 93	 4	 1154	 -194	 867	 hard	 left	 1	 0.893
tex	 2	 94	 1	 966	 -6	 557	 hard	 left	 1	 3.733
tex	 2	 94	 2	 949	 11	 593	 hard	 left	 1	 3.733
tex	 2	 94	 3	 1021	 -61	 433	 hard	 left	 1	 3.733
tex	 2	 94	 4	 537	 423	 610	 hard	 left	 1	 3.733
tex	 2	 94	 5	 1062	 -102	 489	 hard	 left	 1	 3.733
tex	 2	 94	 6	 1088	 -128	 674	 hard	 left	 1	 3.733
tex	 2	 94	 7	 1187	 -227	 879	 hard	 left	 1	 3.733
tex	 2	 94	 8	 1084	 -124	 855	 hard	 left	 1	 3.733
tex	 2	 94	 9	 967	 -7	 541	 hard	 left	 1	 3.733
tex	 2	 94	 10	 1014	 -54	 516	 hard	 left	 1	 3.733
tex	 2	 94	 11	 998	 -38	 409	 hard	 left	 1	 3.733
tex	 2	 94	 12	 1365	 -405	 665	 hard	 left	 1	 3.733
tex	 2	 94	 13	 846	 114	 630	 hard	 left	 1	 3.733
tex	 2	 95	 1	 951	 9	 572	 easy	 left	 0	 1.818
tex	 2	 95	 2	 533	 427	 544	 easy	 left	 0	 1.818
tex	 2	 95	 3	 510	 450	 528	 easy	 left	 0	 1.818
tex	 2	 95	 4	 526	 434	 527	 easy	 left	 0	 1.818
tex	 2	 95	 5	 783	 177	 487	 easy	 left	 0	 1.818
tex	 2	 95	 6	 565	 395	 519	 easy	 left	 0	 1.818
tex	 2	 95	 7	 517	 443	 532	 easy	 left	 0	 1.818
tex	 2	 95	 8	 544	 416	 509	 easy	 left	 0	 1.818
tex	 2	 95	 9	 519	 441	 520	 easy	 left	 0	 1.818
tex	 2	 96	 1	 962	 -2	 571	 hard	 left	 0	 1.932
tex	 2	 96	 2	 1089	 -129	 669	 hard	 left	 0	 1.932
tex	 2	 96	 3	 560	 400	 792	 hard	 left	 0	 1.932
tex	 2	 96	 4	 486	 474	 491	 hard	 left	 0	 1.932
tex	 2	 96	 5	 893	 67	 324	 hard	 left	 0	 1.932
tex	 2	 96	 6	 1153	 -193	 354	 hard	 left	 0	 1.932
tex	 2	 96	 7	 1144	 -184	 594	 hard	 left	 0	 1.932
tex	 3	 17	 1	 973	 13	 545	 hard	 right	 0	 1.227
tex	 3	 17	 2	 932	 -28	 505	 hard	 right	 0	 1.227
tex	 3	 17	 3	 785	 -175	 449	 hard	 right	 0	 1.227
tex	 3	 17	 4	 1275	 315	 515	 hard	 right	 0	 1.227
tex	 3	 17	 5	 627	 -333	 445	 hard	 right	 0	 1.227
tex	 3	 18	 1	 969	 9	 505	 hard	 right	 0	 1.064
tex	 3	 18	 2	 917	 -43	 469	 hard	 right	 0	 1.064
tex	 3	 18	 3	 881	 -79	 499	 hard	 right	 0	 1.064
tex	 3	 18	 4	 1238	 278	 647	 hard	 right	 0	 1.064
tex	 3	 18	 5	 1437	 477	 680	 hard	 right	 0	 1.064
tex	 3	 18	 6	 862	 -98	 662	 hard	 right	 0	 1.064
tex	 3	 18	 7	 650	 -310	 500	 hard	 right	 0	 1.064
tex	 3	 19	 1	 990	 30	 478	 easy	 right	 1	 0.620
tex	 3	 19	 2	 1257	 297	 323	 easy	 right	 1	 0.620
tex	 3	 19	 3	 1236	 276	 312	 easy	 right	 1	 0.620
tex	 3	 20	 1	 960	 0	 553	 hard	 right	 1	 1.544
tex	 3	 20	 2	 1031	 71	 492	 hard	 right	 1	 1.544
tex	 3	 20	 3	 1157	 197	 428	 hard	 right	 1	 1.544
tex	 3	 20	 4	 1313	 353	 469	 hard	 right	 1	 1.544
tex	 3	 20	 5	 700	 -260	 536	 hard	 right	 1	 1.544
tex	 3	 20	 6	 637	 -323	 486	 hard	 right	 1	 1.544
tex	 3	 20	 7	 530	 -430	 590	 hard	 right	 1	 1.544
tex	 3	 21	 1	 995	 35	 531	 hard	 right	 1	 1.106
tex	 3	 21	 2	 960	 0	 501	 hard	 right	 1	 1.106
tex	 3	 21	 3	 766	 -194	 507	 hard	 right	 1	 1.106
tex	 3	 21	 4	 599	 -361	 675	 hard	 right	 1	 1.106
tex	 3	 21	 5	 540	 -420	 713	 hard	 right	 1	 1.106
tex	 3	 22	 1	 975	 -15	 564	 easy	 left	 1	 1.590
tex	 3	 22	 2	 889	 71	 635	 easy	 left	 1	 1.590
tex	 3	 22	 3	 897	 63	 633	 easy	 left	 1	 1.590
tex	 3	 23	 1	 961	 -1	 537	 hard	 left	 0	 3.564
tex	 3	 23	 2	 759	 201	 337	 hard	 left	 0	 3.564
tex	 3	 23	 3	 1248	 -288	 556	 hard	 left	 0	 3.564
tex	 3	 23	 4	 1195	 -235	 573	 hard	 left	 0	 3.564
tex	 3	 23	 5	 773	 187	 630	 hard	 left	 0	 3.564
tex	 3	 23	 6	 894	 66	 473	 hard	 left	 0	 3.564
tex	 3	 23	 7	 1064	 -104	 497	 hard	 left	 0	 3.564
tex	 3	 23	 8	 1007	 -47	 453	 hard	 left	 0	 3.564
tex	 3	 23	 9	 1112	 -152	 353	 hard	 left	 0	 3.564
tex	 3	 23	 10	 1003	 -43	 417	 hard	 left	 0	 3.564
tex	 3	 24	 1	 973	 -13	 534	 easy	 left	 1	 3.200
tex	 3	 24	 2	 581	 379	 411	 easy	 left	 1	 3.200
tex	 3	 24	 3	 574	 386	 381	 easy	 left	 1	 3.200
tex	 3	 24	 4	 558	 402	 354	 easy	 left	 1	 3.200
tex	 3	 24	 5	 577	 383	 382	 easy	 left	 1	 3.200
tex	 3	 25	 1	 961	 1	 520	 easy	 right	 1	 2.200
tex	 3	 25	 2	 910	 -50	 481	 easy	 right	 1	 2.200
tex	 3	 25	 3	 653	 -307	 543	 easy	 right	 1	 2.200
tex	 3	 25	 4	 1355	 395	 512	 easy	 right	 1	 2.200
tex	 3	 25	 5	 1079	 119	 410	 easy	 right	 1	 2.200
tex	 3	 25	 6	 745	 -215	 381	 easy	 right	 1	 2.200
tex	 3	 25	 7	 628	 -332	 317	 easy	 right	 1	 2.200
tex	 3	 26	 1	 963	 -3	 562	 hard	 left	 1	 0.843
tex	 3	 26	 2	 982	 -22	 541	 hard	 left	 1	 0.843
tex	 3	 26	 3	 1029	 -69	 617	 hard	 left	 1	 0.843
tex	 3	 27	 1	 976	 16	 550	 easy	 right	 0	 1.462
tex	 3	 27	 2	 938	 -22	 536	 easy	 right	 0	 1.462
tex	 3	 27	 3	 667	 -293	 405	 easy	 right	 0	 1.462
tex	 3	 27	 4	 1177	 217	 546	 easy	 right	 0	 1.462
tex	 3	 27	 5	 1223	 263	 391	 easy	 right	 0	 1.462
tex	 3	 28	 1	 969	 -9	 518	 hard	 left	 1	 0.904
tex	 3	 28	 2	 877	 83	 526	 hard	 left	 1	 0.904
tex	 3	 28	 3	 1319	 -359	 511	 hard	 left	 1	 0.904
tex	 3	 28	 4	 1376	 -416	 501	 hard	 left	 1	 0.904
tex	 3	 29	 1	 965	 -5	 567	 hard	 left	 1	 6.798
tex	 3	 29	 2	 1209	 -249	 530	 hard	 left	 1	 6.798
tex	 3	 29	 3	 1217	 -257	 777	 hard	 left	 1	 6.798
tex	 3	 29	 4	 1205	 -245	 512	 hard	 left	 1	 6.798
tex	 3	 29	 5	 1144	 -184	 580	 hard	 left	 1	 6.798
tex	 3	 29	 6	 1151	 -191	 823	 hard	 left	 1	 6.798
tex	 3	 29	 7	 1145	 -185	 584	 hard	 left	 1	 6.798
tex	 3	 29	 8	 732	 228	 529	 hard	 left	 1	 6.798
tex	 3	 29	 9	 739	 221	 798	 hard	 left	 1	 6.798
tex	 3	 29	 10	 729	 231	 533	 hard	 left	 1	 6.798
tex	 3	 29	 11	 942	 18	 468	 hard	 left	 1	 6.798
tex	 3	 29	 12	 950	 10	 569	 hard	 left	 1	 6.798
tex	 3	 29	 13	 942	 18	 468	 hard	 left	 1	 6.798
tex	 3	 29	 14	 1013	 -53	 433	 hard	 left	 1	 6.798
tex	 3	 29	 15	 1103	 -143	 429	 hard	 left	 1	 6.798
tex	 3	 29	 16	 1112	 -152	 493	 hard	 left	 1	 6.798
tex	 3	 29	 17	 988	 -28	 492	 hard	 left	 1	 6.798
tex	 3	 29	 18	 1010	 -50	 413	 hard	 left	 1	 6.798
tex	 3	 29	 19	 1077	 -117	 347	 hard	 left	 1	 6.798
tex	 3	 29	 20	 915	 45	 411	 hard	 left	 1	 6.798
tex	 3	 29	 21	 827	 133	 518	 hard	 left	 1	 6.798
tex	 3	 29	 22	 1140	 -180	 576	 hard	 left	 1	 6.798
tex	 3	 29	 23	 991	 -31	 609	 hard	 left	 1	 6.798
tex	 3	 29	 24	 1288	 -328	 548	 hard	 left	 1	 6.798
tex	 3	 29	 25	 1387	 -427	 533	 hard	 left	 1	 6.798
tex	 3	 29	 26	 1419	 -459	 539	 hard	 left	 1	 6.798
tex	 3	 30	 1	 960	 0	 548	 easy	 right	 1	 0.617
tex	 3	 30	 2	 1023	 63	 565	 easy	 right	 1	 0.617
tex	 3	 31	 1	 955	 5	 556	 easy	 left	 1	 1.611
tex	 3	 31	 2	 733	 227	 579	 easy	 left	 1	 1.611
tex	 3	 31	 3	 1261	 -301	 607	 easy	 left	 1	 1.611
tex	 3	 31	 4	 1292	 -332	 630	 easy	 left	 1	 1.611
tex	 3	 31	 5	 1435	 -475	 638	 easy	 left	 1	 1.611
tex	 3	 31	 6	 1034	 -74	 459	 easy	 left	 1	 1.611
tex	 3	 32	 1	 948	 -12	 554	 hard	 right	 1	 1.231
tex	 3	 32	 2	 963	 3	 526	 hard	 right	 1	 1.231
tex	 3	 32	 3	 1255	 295	 533	 hard	 right	 1	 1.231
tex	 3	 32	 4	 1448	 488	 515	 hard	 right	 1	 1.231
tex	 3	 32	 5	 666	 -294	 527	 hard	 right	 1	 1.231
tex	 3	 33	 1	 958	 2	 540	 hard	 left	 1	 1.330
tex	 3	 33	 2	 993	 -33	 525	 hard	 left	 1	 1.330
tex	 3	 33	 3	 1162	 -202	 590	 hard	 left	 1	 1.330
tex	 3	 33	 4	 731	 229	 562	 hard	 left	 1	 1.330
tex	 3	 33	 5	 531	 429	 580	 hard	 left	 1	 1.330
tex	 3	 33	 6	 479	 481	 570	 hard	 left	 1	 1.330
tex	 3	 34	 1	 960	 0	 505	 hard	 right	 1	 1.038
tex	 3	 34	 2	 815	 -145	 515	 hard	 right	 1	 1.038
tex	 3	 34	 3	 1313	 353	 608	 hard	 right	 1	 1.038
tex	 3	 34	 4	 1136	 176	 644	 hard	 right	 1	 1.038
tex	 3	 35	 1	 980	 20	 519	 hard	 right	 1	 1.114
tex	 3	 35	 2	 1092	 132	 532	 hard	 right	 1	 1.114
tex	 3	 35	 3	 1184	 224	 611	 hard	 right	 1	 1.114
tex	 3	 35	 4	 1296	 336	 501	 hard	 right	 1	 1.114
tex	 3	 35	 5	 1085	 125	 571	 hard	 right	 1	 1.114
tex	 3	 35	 6	 1076	 116	 707	 hard	 right	 1	 1.114
tex	 3	 36	 1	 972	 12	 539	 hard	 right	 1	 1.042
tex	 3	 36	 2	 1000	 40	 534	 hard	 right	 1	 1.042
tex	 3	 36	 3	 1264	 304	 580	 hard	 right	 1	 1.042
tex	 3	 36	 4	 824	 -136	 587	 hard	 right	 1	 1.042
tex	 3	 36	 5	 1196	 236	 960	 hard	 right	 1	 1.042
tex	 3	 37	 1	 979	 19	 526	 easy	 right	 1	 0.906
tex	 3	 37	 2	 1302	 342	 558	 easy	 right	 1	 0.906
tex	 3	 37	 3	 919	 -41	 468	 easy	 right	 1	 0.906
tex	 3	 38	 1	 996	 36	 535	 easy	 right	 1	 0.953
tex	 3	 38	 2	 809	 -151	 467	 easy	 right	 1	 0.953
tex	 3	 38	 3	 732	 -228	 385	 easy	 right	 1	 0.953
tex	 3	 38	 4	 664	 -296	 547	 easy	 right	 1	 0.953
tex	 3	 39	 1	 972	 -12	 523	 hard	 left	 1	 1.123
tex	 3	 39	 2	 1171	 -211	 456	 hard	 left	 1	 1.123
tex	 3	 39	 3	 1180	 -220	 518	 hard	 left	 1	 1.123
tex	 3	 39	 4	 1147	 -187	 462	 hard	 left	 1	 1.123
tex	 3	 40	 1	 966	 6	 534	 hard	 right	 0	 0.669
tex	 3	 40	 2	 1327	 367	 561	 hard	 right	 0	 0.669
tex	 3	 40	 3	 788	 -172	 600	 hard	 right	 0	 0.669
tex	 3	 41	 1	 966	 -6	 554	 easy	 left	 1	 0.596
tex	 3	 41	 2	 708	 252	 560	 easy	 left	 1	 0.596
tex	 3	 41	 3	 690	 270	 575	 easy	 left	 1	 0.596
tex	 3	 42	 1	 948	 -12	 537	 hard	 right	 1	 0.631
tex	 3	 42	 2	 876	 -84	 534	 hard	 right	 1	 0.631
tex	 3	 42	 3	 788	 -172	 395	 hard	 right	 1	 0.631
tex	 3	 42	 4	 767	 -193	 381	 hard	 right	 1	 0.631
tex	 3	 43	 1	 949	 11	 541	 hard	 left	 1	 0.838
tex	 3	 43	 2	 836	 124	 535	 hard	 left	 1	 0.838
tex	 3	 43	 3	 722	 238	 669	 hard	 left	 1	 0.838
tex	 3	 44	 1	 976	 16	 556	 hard	 right	 0	 0.616
tex	 3	 44	 2	 1009	 49	 518	 hard	 right	 0	 0.616
tex	 3	 44	 3	 1138	 178	 451	 hard	 right	 0	 0.616
tex	 3	 44	 4	 1150	 190	 424	 hard	 right	 0	 0.616
tex	 3	 45	 1	 996	 -36	 557	 easy	 left	 0	 0.700
tex	 3	 45	 2	 952	 8	 565	 easy	 left	 0	 0.700
tex	 3	 45	 3	 864	 96	 509	 easy	 left	 0	 0.700
tex	 3	 45	 4	 1286	 -326	 845	 easy	 left	 0	 0.700
tex	 3	 46	 1	 1021	 61	 502	 easy	 right	 1	 0.604
tex	 3	 46	 2	 1047	 87	 728	 easy	 right	 1	 0.604
tex	 3	 46	 3	 1053	 93	 826	 easy	 right	 1	 0.604
tex	 3	 47	 1	 962	 -2	 558	 hard	 left	 1	 0.849
tex	 3	 47	 2	 1006	 -46	 560	 hard	 left	 1	 0.849
tex	 3	 47	 3	 877	 83	 688	 hard	 left	 1	 0.849
tex	 3	 47	 4	 780	 180	 731	 hard	 left	 1	 0.849
tex	 3	 48	 1	 970	 -10	 534	 easy	 left	 1	 1.077
tex	 3	 48	 2	 917	 43	 537	 easy	 left	 1	 1.077
tex	 3	 48	 3	 1250	 -290	 605	 easy	 left	 1	 1.077
tex	 3	 48	 4	 1452	 -492	 626	 easy	 left	 1	 1.077
tex	 3	 48	 5	 895	 65	 587	 easy	 left	 1	 1.077
tex	 3	 49	 1	 976	 -16	 549	 easy	 left	 0	 1.220
tex	 3	 49	 2	 974	 -14	 518	 easy	 left	 0	 1.220
tex	 3	 49	 3	 1205	 -245	 530	 easy	 left	 0	 1.220
tex	 3	 49	 4	 752	 208	 550	 easy	 left	 0	 1.220
tex	 3	 49	 5	 680	 280	 567	 easy	 left	 0	 1.220
tex	 3	 49	 6	 1391	 -431	 531	 easy	 left	 0	 1.220
tex	 3	 50	 1	 955	 -5	 586	 hard	 right	 1	 0.820
tex	 3	 50	 2	 957	 -3	 543	 hard	 right	 1	 0.820
tex	 3	 50	 3	 865	 -95	 477	 hard	 right	 1	 0.820
tex	 3	 51	 1	 971	 -11	 571	 hard	 left	 1	 1.067
tex	 3	 51	 2	 1027	 -67	 517	 hard	 left	 1	 1.067
tex	 3	 51	 3	 1120	 -160	 585	 hard	 left	 1	 1.067
tex	 3	 51	 4	 1061	 -101	 732	 hard	 left	 1	 1.067
tex	 3	 51	 5	 1063	 -103	 761	 hard	 left	 1	 1.067
tex	 3	 52	 1	 979	 -19	 550	 easy	 left	 1	 1.041
tex	 3	 52	 2	 1112	 -152	 573	 easy	 left	 1	 1.041
tex	 3	 52	 3	 1391	 -431	 669	 easy	 left	 1	 1.041
tex	 3	 52	 4	 989	 -29	 572	 easy	 left	 1	 1.041
tex	 3	 53	 1	 961	 -1	 550	 hard	 left	 1	 0.840
tex	 3	 53	 2	 1377	 -417	 611	 hard	 left	 1	 0.840
tex	 3	 53	 3	 998	 -38	 573	 hard	 left	 1	 0.840
tex	 3	 54	 1	 1026	 66	 558	 easy	 right	 1	 0.887
tex	 3	 54	 2	 943	 -17	 543	 easy	 right	 1	 0.887
tex	 3	 54	 3	 828	 -132	 545	 easy	 right	 1	 0.887
tex	 3	 55	 1	 960	 0	 532	 easy	 left	 1	 0.584
tex	 3	 55	 2	 748	 212	 744	 easy	 left	 1	 0.584
tex	 3	 55	 3	 726	 234	 836	 easy	 left	 1	 0.584
tex	 3	 56	 1	 961	 1	 570	 easy	 right	 1	 1.084
tex	 3	 56	 2	 734	 -226	 585	 easy	 right	 1	 1.084
tex	 3	 56	 3	 1096	 136	 564	 easy	 right	 1	 1.084
tex	 3	 56	 4	 1281	 321	 546	 easy	 right	 1	 1.084
tex	 3	 57	 1	 965	 -5	 544	 hard	 left	 1	 0.948
tex	 3	 57	 2	 833	 127	 491	 hard	 left	 1	 0.948
tex	 3	 57	 3	 977	 -17	 507	 hard	 left	 1	 0.948
tex	 3	 58	 1	 970	 10	 580	 hard	 right	 0	 1.892
tex	 3	 58	 2	 992	 32	 573	 hard	 right	 0	 1.892
tex	 3	 58	 3	 1041	 81	 526	 hard	 right	 0	 1.892
tex	 3	 58	 4	 952	 -8	 613	 hard	 right	 0	 1.892
tex	 3	 58	 5	 871	 -89	 538	 hard	 right	 0	 1.892
tex	 3	 59	 1	 973	 -13	 563	 easy	 left	 0	 0.663
tex	 3	 59	 2	 578	 382	 730	 easy	 left	 0	 0.663
tex	 3	 59	 3	 561	 399	 748	 easy	 left	 0	 0.663
tex	 3	 60	 1	 982	 -22	 555	 easy	 left	 0	 1.172
tex	 3	 60	 2	 1053	 -93	 531	 easy	 left	 0	 1.172
tex	 3	 60	 3	 892	 68	 549	 easy	 left	 0	 1.172
tex	 3	 60	 4	 1297	 -337	 655	 easy	 left	 0	 1.172
tex	 3	 60	 5	 803	 157	 618	 easy	 left	 0	 1.172
tex	 3	 61	 1	 986	 -26	 532	 hard	 left	 1	 1.112
tex	 3	 61	 2	 986	 -26	 561	 hard	 left	 1	 1.112
tex	 3	 61	 3	 761	 199	 308	 hard	 left	 1	 1.112
tex	 3	 61	 4	 651	 309	 255	 hard	 left	 1	 1.112
tex	 3	 61	 5	 764	 196	 426	 hard	 left	 1	 1.112
tex	 3	 62	 1	 964	 4	 554	 easy	 right	 1	 0.664
tex	 3	 62	 2	 929	 -31	 506	 easy	 right	 1	 0.664
tex	 3	 62	 3	 1399	 439	 460	 easy	 right	 1	 0.664
tex	 3	 63	 1	 1075	 115	 514	 easy	 right	 1	 0.654
tex	 3	 63	 2	 1232	 272	 638	 easy	 right	 1	 0.654
tex	 3	 63	 3	 1256	 296	 678	 easy	 right	 1	 0.654
tex	 3	 64	 1	 969	 9	 570	 easy	 right	 1	 0.679
tex	 3	 64	 2	 1259	 299	 592	 easy	 right	 1	 0.679
tex	 3	 64	 3	 1291	 331	 607	 easy	 right	 1	 0.679
tex	 3	 65	 1	 1005	 -45	 565	 hard	 left	 1	 1.549
tex	 3	 65	 2	 1160	 -200	 564	 hard	 left	 1	 1.549
tex	 3	 65	 3	 747	 213	 517	 hard	 left	 1	 1.549
tex	 3	 65	 4	 1178	 -218	 449	 hard	 left	 1	 1.549
tex	 3	 65	 5	 1367	 -407	 710	 hard	 left	 1	 1.549
tex	 3	 65	 6	 671	 289	 620	 hard	 left	 1	 1.549
tex	 3	 66	 1	 975	 15	 563	 hard	 right	 0	 1.489
tex	 3	 66	 2	 939	 -21	 576	 hard	 right	 0	 1.489
tex	 3	 66	 3	 934	 -26	 622	 hard	 right	 0	 1.489
tex	 3	 66	 4	 1229	 269	 500	 hard	 right	 0	 1.489
tex	 3	 66	 5	 835	 -125	 522	 hard	 right	 0	 1.489
tex	 3	 67	 1	 968	 8	 530	 easy	 right	 1	 1.442
tex	 3	 67	 2	 1004	 44	 563	 easy	 right	 1	 1.442
tex	 3	 67	 3	 1224	 264	 460	 easy	 right	 1	 1.442
tex	 3	 67	 4	 705	 -255	 532	 easy	 right	 1	 1.442
tex	 3	 67	 5	 607	 -353	 656	 easy	 right	 1	 1.442
tex	 3	 68	 1	 940	 -20	 546	 hard	 right	 1	 1.368
tex	 3	 68	 2	 898	 -62	 541	 hard	 right	 1	 1.368
tex	 3	 68	 3	 865	 -95	 458	 hard	 right	 1	 1.368
tex	 3	 68	 4	 788	 -172	 367	 hard	 right	 1	 1.368
tex	 3	 68	 5	 747	 -213	 301	 hard	 right	 1	 1.368
tex	 3	 69	 1	 950	 10	 549	 easy	 left	 1	 1.130
tex	 3	 69	 2	 934	 26	 501	 easy	 left	 1	 1.130
tex	 3	 69	 3	 1065	 -105	 467	 easy	 left	 1	 1.130
tex	 3	 69	 4	 1212	 -252	 535	 easy	 left	 1	 1.130
tex	 3	 69	 5	 1221	 -261	 741	 easy	 left	 1	 1.130
tex	 3	 69	 6	 767	 193	 606	 easy	 left	 1	 1.130
tex	 3	 70	 1	 958	 -2	 545	 easy	 right	 1	 0.669
tex	 3	 70	 2	 924	 -36	 535	 easy	 right	 1	 0.669
tex	 3	 70	 3	 1323	 363	 669	 easy	 right	 1	 0.669
tex	 3	 70	 4	 1345	 385	 695	 easy	 right	 1	 0.669
tex	 3	 71	 1	 966	 6	 575	 easy	 right	 1	 1.609
tex	 3	 71	 2	 947	 -13	 550	 easy	 right	 1	 1.609
tex	 3	 71	 3	 1131	 171	 557	 easy	 right	 1	 1.609
tex	 3	 71	 4	 670	 -290	 536	 easy	 right	 1	 1.609
tex	 3	 71	 5	 651	 -309	 418	 easy	 right	 1	 1.609
tex	 3	 71	 6	 1011	 51	 618	 easy	 right	 1	 1.609
tex	 3	 71	 7	 1051	 91	 632	 easy	 right	 1	 1.609
tex	 3	 72	 1	 961	 -1	 547	 easy	 left	 1	 1.137
tex	 3	 72	 2	 1266	 -306	 569	 easy	 left	 1	 1.137
tex	 3	 72	 3	 956	 4	 465	 easy	 left	 1	 1.137
tex	 3	 73	 1	 959	 -1	 543	 easy	 right	 1	 0.590
tex	 3	 73	 2	 1029	 69	 795	 easy	 right	 1	 0.590
tex	 3	 74	 1	 965	 -5	 566	 easy	 left	 1	 1.550
tex	 3	 74	 2	 1211	 -251	 663	 easy	 left	 1	 1.550
tex	 3	 74	 3	 1069	 -109	 695	 easy	 left	 1	 1.550
tex	 3	 74	 4	 1130	 -170	 485	 easy	 left	 1	 1.550
tex	 3	 74	 5	 953	 7	 493	 easy	 left	 1	 1.550
tex	 3	 74	 6	 805	 155	 532	 easy	 left	 1	 1.550
tex	 3	 75	 1	 965	 -5	 561	 hard	 left	 1	 1.095
tex	 3	 75	 2	 1163	 -203	 424	 hard	 left	 1	 1.095
tex	 3	 75	 3	 1221	 -261	 566	 hard	 left	 1	 1.095
tex	 3	 75	 4	 1098	 -138	 462	 hard	 left	 1	 1.095
tex	 3	 75	 5	 1086	 -126	 405	 hard	 left	 1	 1.095
tex	 3	 76	 1	 965	 -5	 531	 easy	 left	 1	 1.950
tex	 3	 76	 2	 853	 107	 433	 easy	 left	 1	 1.950
tex	 3	 76	 3	 1022	 -62	 556	 easy	 left	 1	 1.950
tex	 3	 76	 4	 1261	 -301	 584	 easy	 left	 1	 1.950
tex	 3	 76	 5	 1118	 -158	 558	 easy	 left	 1	 1.950
tex	 3	 76	 6	 1045	 -85	 452	 easy	 left	 1	 1.950
tex	 3	 76	 7	 1024	 -64	 414	 easy	 left	 1	 1.950
tex	 3	 77	 1	 957	 3	 550	 hard	 left	 1	 0.668
tex	 3	 77	 2	 1120	 -160	 529	 hard	 left	 1	 0.668
tex	 3	 77	 3	 1020	 -60	 588	 hard	 left	 1	 0.668
tex	 3	 78	 1	 965	 5	 566	 hard	 right	 1	 0.830
tex	 3	 78	 2	 932	 -28	 468	 hard	 right	 1	 0.830
tex	 3	 79	 1	 957	 3	 553	 easy	 left	 0	 0.627
tex	 3	 79	 2	 856	 104	 505	 easy	 left	 0	 0.627
tex	 3	 80	 1	 979	 19	 519	 hard	 right	 1	 1.253
tex	 3	 80	 2	 797	 -163	 395	 hard	 right	 1	 1.253
tex	 3	 80	 3	 760	 -200	 345	 hard	 right	 1	 1.253
tex	 3	 80	 4	 746	 -214	 301	 hard	 right	 1	 1.253
tex	 3	 81	 1	 991	 31	 540	 hard	 right	 1	 1.359
tex	 3	 81	 2	 926	 -34	 505	 hard	 right	 1	 1.359
tex	 3	 81	 3	 824	 -136	 457	 hard	 right	 1	 1.359
tex	 3	 81	 4	 905	 -55	 383	 hard	 right	 1	 1.359
tex	 3	 81	 5	 1040	 80	 435	 hard	 right	 1	 1.359
tex	 3	 81	 6	 868	 -92	 550	 hard	 right	 1	 1.359
tex	 3	 82	 1	 972	 12	 548	 easy	 right	 1	 0.880
tex	 3	 82	 2	 1111	 151	 356	 easy	 right	 1	 0.880
tex	 3	 82	 3	 1169	 209	 283	 easy	 right	 1	 0.880
tex	 3	 83	 1	 968	 8	 536	 easy	 right	 1	 1.052
tex	 3	 83	 2	 977	 17	 500	 easy	 right	 1	 1.052
tex	 3	 83	 3	 543	 -417	 601	 easy	 right	 1	 1.052
tex	 3	 83	 4	 774	 -186	 439	 easy	 right	 1	 1.052
tex	 3	 83	 5	 1037	 77	 453	 easy	 right	 1	 1.052
tex	 3	 84	 1	 987	 -27	 529	 easy	 left	 0	 0.559
tex	 3	 84	 2	 587	 373	 713	 easy	 left	 0	 0.559
tex	 3	 85	 1	 971	 -11	 539	 easy	 left	 1	 1.241
tex	 3	 85	 2	 805	 155	 372	 easy	 left	 1	 1.241
tex	 3	 85	 3	 758	 202	 296	 easy	 left	 1	 1.241
tex	 3	 85	 4	 783	 177	 320	 easy	 left	 1	 1.241
tex	 3	 86	 1	 969	 -9	 511	 hard	 left	 1	 1.054
tex	 3	 86	 2	 977	 -17	 482	 hard	 left	 1	 1.054
tex	 3	 86	 3	 1224	 -264	 572	 hard	 left	 1	 1.054
tex	 3	 86	 4	 1344	 -384	 446	 hard	 left	 1	 1.054
tex	 3	 86	 5	 1371	 -411	 440	 hard	 left	 1	 1.054
tex	 3	 87	 1	 989	 29	 534	 hard	 right	 1	 0.760
tex	 3	 87	 2	 913	 -47	 444	 hard	 right	 1	 0.760
tex	 3	 87	 3	 854	 -106	 414	 hard	 right	 1	 0.760
tex	 3	 88	 1	 960	 0	 551	 easy	 right	 1	 0.504
tex	 3	 88	 2	 1197	 237	 564	 easy	 right	 1	 0.504
tex	 3	 89	 1	 988	 28	 572	 hard	 right	 1	 0.650
tex	 3	 89	 2	 868	 -92	 468	 hard	 right	 1	 0.650
tex	 3	 89	 3	 806	 -154	 402	 hard	 right	 1	 0.650
tex	 3	 89	 4	 789	 -171	 376	 hard	 right	 1	 0.650
tex	 3	 90	 1	 951	 9	 530	 hard	 left	 0	 0.751
tex	 3	 90	 2	 904	 56	 489	 hard	 left	 0	 0.751
tex	 3	 90	 3	 1041	 -81	 468	 hard	 left	 0	 0.751
tex	 3	 90	 4	 1247	 -287	 479	 hard	 left	 0	 0.751
tex	 3	 90	 5	 970	 -10	 434	 hard	 left	 0	 0.751
tex	 3	 92	 1	 962	 2	 567	 easy	 right	 1	 1.592
tex	 3	 92	 2	 577	 -383	 518	 easy	 right	 1	 1.592
tex	 3	 92	 3	 954	 -6	 549	 easy	 right	 1	 1.592
tex	 3	 92	 4	 1173	 213	 568	 easy	 right	 1	 1.592
tex	 3	 92	 5	 1220	 260	 537	 easy	 right	 1	 1.592
tex	 3	 93	 1	 971	 -11	 580	 hard	 left	 1	 1.016
tex	 3	 93	 2	 964	 -4	 525	 hard	 left	 1	 1.016
tex	 3	 93	 3	 1256	 -296	 699	 hard	 left	 1	 1.016
tex	 3	 93	 4	 1256	 -296	 745	 hard	 left	 1	 1.016
tex	 3	 93	 5	 1213	 -253	 466	 hard	 left	 1	 1.016
tex	 3	 93	 6	 1150	 -190	 940	 hard	 left	 1	 1.016
tex	 3	 93	 7	 1137	 -177	 893	 hard	 left	 1	 1.016
tex	 3	 94	 1	 966	 -6	 594	 hard	 left	 1	 1.116
tex	 3	 94	 2	 996	 -36	 573	 hard	 left	 1	 1.116
tex	 3	 94	 3	 1296	 -336	 633	 hard	 left	 1	 1.116
tex	 3	 94	 4	 1428	 -468	 656	 hard	 left	 1	 1.116
tex	 3	 94	 5	 1209	 -249	 717	 hard	 left	 1	 1.116
tex	 3	 95	 1	 1073	 -113	 612	 easy	 left	 1	 0.792
tex	 3	 95	 2	 1005	 -45	 590	 easy	 left	 1	 0.792
tex	 3	 95	 3	 543	 417	 553	 easy	 left	 1	 0.792
tex	 3	 96	 1	 960	 0	 570	 hard	 left	 1	 1.415
tex	 3	 96	 2	 634	 326	 546	 hard	 left	 1	 1.415
tex	 3	 96	 3	 1039	 -79	 606	 hard	 left	 1	 1.415
tex	 3	 96	 4	 1300	 -340	 501	 hard	 left	 1	 1.415
tex	 3	 96	 5	 1392	 -432	 485	 hard	 left	 1	 1.415
tex	 4	 17	 1	 995	 35	 557	 hard	 right	 1	 1.118
tex	 4	 17	 2	 1080	 120	 533	 hard	 right	 1	 1.118
tex	 4	 17	 3	 731	 -229	 471	 hard	 right	 1	 1.118
tex	 4	 18	 1	 952	 -8	 505	 hard	 right	 1	 2.237
tex	 4	 18	 2	 773	 -187	 608	 hard	 right	 1	 2.237
tex	 4	 18	 3	 1268	 308	 517	 hard	 right	 1	 2.237
tex	 4	 18	 4	 1060	 100	 662	 hard	 right	 1	 2.237
tex	 4	 18	 5	 685	 -275	 637	 hard	 right	 1	 2.237
tex	 4	 18	 6	 883	 -77	 690	 hard	 right	 1	 2.237
tex	 4	 18	 7	 734	 -226	 722	 hard	 right	 1	 2.237
tex	 4	 19	 1	 926	 -34	 591	 easy	 right	 0	 0.603
tex	 4	 19	 2	 1123	 163	 415	 easy	 right	 0	 0.603
tex	 4	 19	 3	 1207	 247	 370	 easy	 right	 0	 0.603
tex	 4	 20	 1	 1012	 52	 443	 hard	 right	 1	 1.375
tex	 4	 20	 2	 1133	 173	 384	 hard	 right	 1	 1.375
tex	 4	 20	 3	 715	 -245	 366	 hard	 right	 1	 1.375
tex	 4	 20	 4	 806	 -154	 579	 hard	 right	 1	 1.375
tex	 4	 20	 5	 501	 -459	 574	 hard	 right	 1	 1.375
tex	 4	 21	 1	 986	 26	 535	 hard	 right	 1	 1.065
tex	 4	 21	 2	 958	 -2	 418	 hard	 right	 1	 1.065
tex	 4	 21	 3	 851	 -109	 466	 hard	 right	 1	 1.065
tex	 4	 21	 4	 510	 -450	 675	 hard	 right	 1	 1.065
tex	 4	 22	 1	 1020	 -60	 462	 easy	 left	 1	 0.769
tex	 4	 22	 2	 1198	 -238	 410	 easy	 left	 1	 0.769
tex	 4	 22	 3	 944	 16	 556	 easy	 left	 1	 0.769
tex	 4	 22	 4	 889	 71	 564	 easy	 left	 1	 0.769
tex	 4	 23	 1	 994	 -34	 530	 hard	 left	 1	 2.897
tex	 4	 23	 2	 1147	 -187	 560	 hard	 left	 1	 2.897
tex	 4	 23	 3	 1215	 -255	 622	 hard	 left	 1	 2.897
tex	 4	 23	 4	 1416	 -456	 379	 hard	 left	 1	 2.897
tex	 4	 23	 5	 1199	 -239	 318	 hard	 left	 1	 2.897
tex	 4	 23	 6	 1438	 -478	 547	 hard	 left	 1	 2.897
tex	 4	 23	 7	 528	 432	 425	 hard	 left	 1	 2.897
tex	 4	 23	 8	 812	 148	 552	 hard	 left	 1	 2.897
tex	 4	 23	 9	 1372	 -412	 700	 hard	 left	 1	 2.897
tex	 4	 23	 10	 1280	 -320	 777	 hard	 left	 1	 2.897
tex	 4	 24	 1	 988	 -28	 583	 easy	 left	 1	 0.881
tex	 4	 24	 2	 702	 258	 410	 easy	 left	 1	 0.881
tex	 4	 24	 3	 611	 349	 395	 easy	 left	 1	 0.881
tex	 4	 24	 4	 866	 94	 521	 easy	 left	 1	 0.881
tex	 4	 25	 1	 1025	 65	 614	 easy	 right	 1	 2.743
tex	 4	 25	 2	 807	 -153	 469	 easy	 right	 1	 2.743
tex	 4	 25	 3	 944	 -16	 612	 easy	 right	 1	 2.743
tex	 4	 25	 4	 958	 -2	 660	 easy	 right	 1	 2.743
tex	 4	 25	 5	 641	 -319	 286	 easy	 right	 1	 2.743
tex	 4	 25	 6	 666	 -294	 403	 easy	 right	 1	 2.743
tex	 4	 25	 7	 631	 -329	 354	 easy	 right	 1	 2.743
tex	 4	 25	 8	 1392	 432	 322	 easy	 right	 1	 2.743
tex	 4	 25	 9	 835	 -125	 625	 easy	 right	 1	 2.743
tex	 4	 25	 10	 635	 -325	 585	 easy	 right	 1	 2.743
tex	 4	 25	 11	 1338	 378	 658	 easy	 right	 1	 2.743
tex	 4	 26	 1	 968	 -8	 543	 hard	 left	 1	 0.458
tex	 4	 26	 2	 1075	 -115	 590	 hard	 left	 1	 0.458
tex	 4	 27	 1	 953	 -7	 550	 easy	 right	 1	 2.707
tex	 4	 27	 2	 1054	 94	 534	 easy	 right	 1	 2.707
tex	 4	 27	 3	 909	 -51	 549	 easy	 right	 1	 2.707
tex	 4	 27	 4	 815	 -145	 486	 easy	 right	 1	 2.707
tex	 4	 27	 5	 538	 -422	 323	 easy	 right	 1	 2.707
tex	 4	 27	 6	 673	 -287	 511	 easy	 right	 1	 2.707
tex	 4	 27	 7	 921	 -39	 702	 easy	 right	 1	 2.707
tex	 4	 27	 8	 833	 -127	 614	 easy	 right	 1	 2.707
tex	 4	 27	 9	 812	 -148	 666	 easy	 right	 1	 2.707
tex	 4	 27	 10	 931	 -29	 743	 easy	 right	 1	 2.707
tex	 4	 27	 11	 1299	 339	 520	 easy	 right	 1	 2.707
tex	 4	 28	 1	 957	 3	 585	 hard	 left	 1	 0.679
tex	 4	 28	 2	 955	 5	 547	 hard	 left	 1	 0.679
tex	 4	 28	 3	 1063	 -103	 557	 hard	 left	 1	 0.679
tex	 4	 28	 4	 1385	 -425	 508	 hard	 left	 1	 0.679
tex	 4	 29	 1	 779	 181	 485	 hard	 left	 1	 1.982
tex	 4	 29	 2	 982	 -22	 501	 hard	 left	 1	 1.982
tex	 4	 29	 3	 1392	 -432	 410	 hard	 left	 1	 1.982
tex	 4	 29	 4	 1271	 -311	 558	 hard	 left	 1	 1.982
tex	 4	 29	 5	 1217	 -257	 300	 hard	 left	 1	 1.982
tex	 4	 29	 6	 1419	 -459	 666	 hard	 left	 1	 1.982
tex	 4	 29	 7	 1483	 -523	 909	 hard	 left	 1	 1.982
tex	 4	 30	 1	 1112	 152	 492	 easy	 right	 1	 0.541
tex	 4	 30	 2	 1078	 118	 531	 easy	 right	 1	 0.541
tex	 4	 30	 3	 1070	 110	 537	 easy	 right	 1	 0.541
tex	 4	 31	 1	 964	 -4	 591	 easy	 left	 1	 2.889
tex	 4	 31	 2	 1117	 -157	 580	 easy	 left	 1	 2.889
tex	 4	 31	 3	 1317	 -357	 620	 easy	 left	 1	 2.889
tex	 4	 31	 4	 1468	 -508	 642	 easy	 left	 1	 2.889
tex	 4	 31	 5	 1166	 -206	 676	 easy	 left	 1	 2.889
tex	 4	 31	 6	 509	 451	 507	 easy	 left	 1	 2.889
tex	 4	 31	 7	 1271	 -311	 340	 easy	 left	 1	 2.889
tex	 4	 31	 8	 1433	 -473	 376	 easy	 left	 1	 2.889
tex	 4	 31	 9	 1192	 -232	 770	 easy	 left	 1	 2.889
tex	 4	 31	 10	 1310	 -350	 851	 easy	 left	 1	 2.889
tex	 4	 32	 1	 970	 10	 578	 hard	 right	 1	 2.461
tex	 4	 32	 2	 1110	 150	 589	 hard	 right	 1	 2.461
tex	 4	 32	 3	 605	 -355	 519	 hard	 right	 1	 2.461
tex	 4	 32	 4	 708	 -252	 568	 hard	 right	 1	 2.461
tex	 4	 32	 5	 877	 -83	 678	 hard	 right	 1	 2.461
tex	 4	 32	 6	 626	 -334	 682	 hard	 right	 1	 2.461
tex	 4	 32	 7	 834	 -126	 774	 hard	 right	 1	 2.461
tex	 4	 32	 8	 654	 -306	 341	 hard	 right	 1	 2.461
tex	 4	 33	 1	 1043	 -83	 527	 hard	 left	 1	 3.098
tex	 4	 33	 2	 1164	 -204	 558	 hard	 left	 1	 3.098
tex	 4	 33	 3	 1214	 -254	 531	 hard	 left	 1	 3.098
tex	 4	 33	 4	 1381	 -421	 467	 hard	 left	 1	 3.098
tex	 4	 33	 5	 1404	 -444	 693	 hard	 left	 1	 3.098
tex	 4	 33	 6	 626	 334	 565	 hard	 left	 1	 3.098
tex	 4	 33	 7	 1146	 -186	 707	 hard	 left	 1	 3.098
tex	 4	 33	 8	 1330	 -370	 886	 hard	 left	 1	 3.098
tex	 4	 33	 9	 1190	 -230	 292	 hard	 left	 1	 3.098
tex	 4	 33	 10	 1333	 -373	 402	 hard	 left	 1	 3.098
tex	 4	 34	 1	 988	 28	 578	 hard	 right	 1	 1.268
tex	 4	 34	 2	 1078	 118	 557	 hard	 right	 1	 1.268
tex	 4	 34	 3	 556	 -404	 518	 hard	 right	 1	 1.268
tex	 4	 34	 4	 648	 -312	 618	 hard	 right	 1	 1.268
tex	 4	 34	 5	 801	 -159	 667	 hard	 right	 1	 1.268
tex	 4	 35	 1	 1006	 46	 569	 hard	 right	 1	 2.301
tex	 4	 35	 2	 766	 -194	 539	 hard	 right	 1	 2.301
tex	 4	 35	 3	 846	 -114	 595	 hard	 right	 1	 2.301
tex	 4	 35	 4	 496	 -464	 536	 hard	 right	 1	 2.301
tex	 4	 35	 5	 636	 -324	 695	 hard	 right	 1	 2.301
tex	 4	 35	 6	 629	 -331	 701	 hard	 right	 1	 2.301
tex	 4	 35	 7	 748	 -212	 709	 hard	 right	 1	 2.301
tex	 4	 35	 8	 772	 -188	 801	 hard	 right	 1	 2.301
tex	 4	 35	 9	 1185	 225	 505	 hard	 right	 1	 2.301
tex	 4	 35	 10	 836	 -124	 312	 hard	 right	 1	 2.301
tex	 4	 36	 1	 961	 1	 589	 hard	 right	 1	 2.578
tex	 4	 36	 2	 1092	 132	 530	 hard	 right	 1	 2.578
tex	 4	 36	 3	 889	 -71	 584	 hard	 right	 1	 2.578
tex	 4	 36	 4	 941	 -19	 682	 hard	 right	 1	 2.578
tex	 4	 36	 5	 585	 -375	 559	 hard	 right	 1	 2.578
tex	 4	 36	 6	 760	 -200	 659	 hard	 right	 1	 2.578
tex	 4	 36	 7	 1263	 303	 696	 hard	 right	 1	 2.578
tex	 4	 36	 8	 665	 -295	 692	 hard	 right	 1	 2.578
tex	 4	 36	 9	 541	 -419	 605	 hard	 right	 1	 2.578
tex	 4	 36	 10	 874	 -86	 534	 hard	 right	 1	 2.578
tex	 4	 36	 11	 1198	 238	 543	 hard	 right	 1	 2.578
tex	 4	 37	 1	 1044	 84	 564	 easy	 right	 1	 3.091
tex	 4	 37	 2	 978	 18	 565	 easy	 right	 1	 3.091
tex	 4	 37	 3	 1397	 437	 536	 easy	 right	 1	 3.091
tex	 4	 37	 4	 611	 -349	 489	 easy	 right	 1	 3.091
tex	 4	 37	 5	 833	 -127	 567	 easy	 right	 1	 3.091
tex	 4	 37	 6	 705	 -255	 649	 easy	 right	 1	 3.091
tex	 4	 37	 7	 615	 -345	 774	 easy	 right	 1	 3.091
tex	 4	 37	 8	 572	 -388	 789	 easy	 right	 1	 3.091
tex	 4	 37	 9	 628	 -332	 834	 easy	 right	 1	 3.091
tex	 4	 37	 10	 686	 -274	 394	 easy	 right	 1	 3.091
tex	 4	 37	 11	 817	 -143	 424	 easy	 right	 1	 3.091
tex	 4	 37	 12	 1293	 333	 452	 easy	 right	 1	 3.091
tex	 4	 38	 1	 979	 19	 569	 easy	 right	 1	 2.295
tex	 4	 38	 2	 741	 -219	 609	 easy	 right	 1	 2.295
tex	 4	 38	 3	 734	 -226	 507	 easy	 right	 1	 2.295
tex	 4	 38	 4	 794	 -166	 703	 easy	 right	 1	 2.295
tex	 4	 38	 5	 734	 -226	 730	 easy	 right	 1	 2.295
tex	 4	 38	 6	 745	 -215	 790	 easy	 right	 1	 2.295
tex	 4	 38	 7	 978	 18	 685	 easy	 right	 1	 2.295
tex	 4	 38	 8	 1359	 399	 611	 easy	 right	 1	 2.295
tex	 4	 39	 1	 978	 -18	 558	 hard	 left	 1	 2.250
tex	 4	 39	 2	 821	 139	 495	 hard	 left	 1	 2.250
tex	 4	 39	 3	 1058	 -98	 381	 hard	 left	 1	 2.250
tex	 4	 39	 4	 1244	 -284	 433	 hard	 left	 1	 2.250
tex	 4	 39	 5	 1165	 -205	 551	 hard	 left	 1	 2.250
tex	 4	 39	 6	 740	 220	 623	 hard	 left	 1	 2.250
tex	 4	 39	 7	 1079	 -119	 730	 hard	 left	 1	 2.250
tex	 4	 39	 8	 1088	 -128	 811	 hard	 left	 1	 2.250
tex	 4	 40	 1	 1001	 41	 499	 hard	 right	 1	 1.013
tex	 4	 40	 2	 1090	 130	 479	 hard	 right	 1	 1.013
tex	 4	 40	 3	 707	 -253	 447	 hard	 right	 1	 1.013
tex	 4	 40	 4	 491	 -469	 557	 hard	 right	 1	 1.013
tex	 4	 41	 1	 809	 151	 533	 easy	 left	 1	 1.779
tex	 4	 41	 2	 693	 267	 559	 easy	 left	 1	 1.779
tex	 4	 41	 3	 753	 207	 587	 easy	 left	 1	 1.779
tex	 4	 41	 4	 1067	 -107	 584	 easy	 left	 1	 1.779
tex	 4	 42	 1	 978	 18	 565	 hard	 right	 1	 0.710
tex	 4	 42	 2	 803	 -157	 397	 hard	 right	 1	 0.710
tex	 4	 43	 1	 974	 -14	 569	 hard	 left	 1	 2.165
tex	 4	 43	 2	 1031	 -71	 554	 hard	 left	 1	 2.165
tex	 4	 43	 3	 1343	 -383	 603	 hard	 left	 1	 2.165
tex	 4	 43	 4	 1225	 -265	 723	 hard	 left	 1	 2.165
tex	 4	 43	 5	 1398	 -438	 871	 hard	 left	 1	 2.165
tex	 4	 43	 6	 618	 342	 586	 hard	 left	 1	 2.165
tex	 4	 43	 7	 828	 132	 525	 hard	 left	 1	 2.165
tex	 4	 43	 8	 1194	 -234	 361	 hard	 left	 1	 2.165
tex	 4	 43	 9	 1263	 -303	 456	 hard	 left	 1	 2.165
tex	 4	 44	 1	 997	 37	 578	 hard	 right	 1	 2.030
tex	 4	 44	 2	 1033	 73	 573	 hard	 right	 1	 2.030
tex	 4	 44	 3	 785	 -175	 643	 hard	 right	 1	 2.030
tex	 4	 44	 4	 824	 -136	 786	 hard	 right	 1	 2.030
tex	 4	 44	 5	 435	 -525	 681	 hard	 right	 1	 2.030
tex	 4	 44	 6	 614	 -346	 479	 hard	 right	 1	 2.030
tex	 4	 44	 7	 1334	 374	 435	 hard	 right	 1	 2.030
tex	 4	 44	 8	 1022	 62	 555	 hard	 right	 1	 2.030
tex	 4	 45	 1	 961	 -1	 589	 easy	 left	 1	 2.257
tex	 4	 45	 2	 957	 3	 549	 easy	 left	 1	 2.257
tex	 4	 45	 3	 1313	 -353	 484	 easy	 left	 1	 2.257
tex	 4	 45	 4	 1455	 -495	 494	 easy	 left	 1	 2.257
tex	 4	 45	 5	 1057	 -97	 585	 easy	 left	 1	 2.257
tex	 4	 45	 6	 1038	 -78	 560	 easy	 left	 1	 2.257
tex	 4	 45	 7	 427	 533	 682	 easy	 left	 1	 2.257
tex	 4	 45	 8	 1125	 -165	 934	 easy	 left	 1	 2.257
tex	 4	 45	 9	 1240	 -280	 866	 easy	 left	 1	 2.257
tex	 4	 46	 1	 992	 32	 591	 easy	 right	 1	 0.581
tex	 4	 46	 2	 1112	 152	 780	 easy	 right	 1	 0.581
tex	 4	 46	 3	 1092	 132	 817	 easy	 right	 1	 0.581
tex	 4	 47	 1	 980	 -20	 586	 hard	 left	 1	 1.546
tex	 4	 47	 2	 990	 -30	 489	 hard	 left	 1	 1.546
tex	 4	 47	 3	 1126	 -166	 605	 hard	 left	 1	 1.546
tex	 4	 47	 4	 723	 237	 495	 hard	 left	 1	 1.546
tex	 4	 47	 5	 1111	 -151	 685	 hard	 left	 1	 1.546
tex	 4	 47	 6	 1439	 -479	 744	 hard	 left	 1	 1.546
tex	 4	 47	 7	 1179	 -219	 807	 hard	 left	 1	 1.546
tex	 4	 48	 1	 977	 -17	 584	 easy	 left	 1	 1.901
tex	 4	 48	 2	 659	 301	 648	 easy	 left	 1	 1.901
tex	 4	 48	 3	 730	 230	 448	 easy	 left	 1	 1.901
tex	 4	 48	 4	 1268	 -308	 691	 easy	 left	 1	 1.901
tex	 4	 48	 5	 1107	 -147	 554	 easy	 left	 1	 1.901
tex	 4	 48	 6	 1146	 -186	 516	 easy	 left	 1	 1.901
tex	 4	 48	 7	 1489	 -529	 509	 easy	 left	 1	 1.901
tex	 4	 48	 8	 1431	 -471	 868	 easy	 left	 1	 1.901
tex	 4	 49	 1	 980	 -20	 597	 easy	 left	 1	 1.532
tex	 4	 49	 2	 1311	 -351	 565	 easy	 left	 1	 1.532
tex	 4	 49	 3	 1197	 -237	 542	 easy	 left	 1	 1.532
tex	 4	 49	 4	 1494	 -534	 546	 easy	 left	 1	 1.532
tex	 4	 49	 5	 1135	 -175	 591	 easy	 left	 1	 1.532
tex	 4	 49	 6	 731	 229	 701	 easy	 left	 1	 1.532
tex	 4	 50	 1	 975	 15	 579	 hard	 right	 1	 2.184
tex	 4	 50	 2	 854	 -106	 522	 hard	 right	 1	 2.184
tex	 4	 50	 3	 501	 -459	 690	 hard	 right	 1	 2.184
tex	 4	 50	 4	 651	 -309	 839	 hard	 right	 1	 2.184
tex	 4	 50	 5	 810	 -150	 872	 hard	 right	 1	 2.184
tex	 4	 50	 6	 725	 -235	 868	 hard	 right	 1	 2.184
tex	 4	 50	 7	 663	 -297	 425	 hard	 right	 1	 2.184
tex	 4	 50	 8	 846	 -114	 403	 hard	 right	 1	 2.184
tex	 4	 51	 1	 976	 -16	 587	 hard	 left	 0	 1.231
tex	 4	 51	 2	 1060	 -100	 584	 hard	 left	 0	 1.231
tex	 4	 51	 3	 1459	 -499	 635	 hard	 left	 0	 1.231
tex	 4	 51	 4	 1281	 -321	 699	 hard	 left	 0	 1.231
tex	 4	 51	 5	 1310	 -350	 859	 hard	 left	 0	 1.231
tex	 4	 52	 1	 930	 30	 623	 easy	 left	 1	 1.263
tex	 4	 52	 2	 1043	 -83	 553	 easy	 left	 1	 1.263
tex	 4	 52	 3	 1168	 -208	 757	 easy	 left	 1	 1.263
tex	 4	 52	 4	 1436	 -476	 747	 easy	 left	 1	 1.263
tex	 4	 52	 5	 637	 323	 563	 easy	 left	 1	 1.263
tex	 4	 53	 1	 985	 -25	 605	 hard	 left	 1	 1.625
tex	 4	 53	 2	 1137	 -177	 614	 hard	 left	 1	 1.625
tex	 4	 53	 3	 1081	 -121	 754	 hard	 left	 1	 1.625
tex	 4	 53	 4	 1392	 -432	 807	 hard	 left	 1	 1.625
tex	 4	 53	 5	 1441	 -481	 855	 hard	 left	 1	 1.625
tex	 4	 53	 6	 1351	 -391	 325	 hard	 left	 1	 1.625
tex	 4	 53	 7	 1313	 -353	 401	 hard	 left	 1	 1.625
tex	 4	 53	 8	 467	 493	 515	 hard	 left	 1	 1.625
