condition	 subNum	 trialNo	 fixNo	 xFix	 yFix	 targSide	 easySide	 accuracy	 RT
tex	 1	 1	 1	 958	 544	 easy	 left	 0	 5.001
tex	 1	 1	 2	 926	 530	 easy	 left	 0	 5.001
tex	 1	 1	 3	 1017	 594	 easy	 left	 0	 5.001
tex	 1	 1	 4	 697	 555	 easy	 left	 0	 5.001
tex	 1	 1	 5	 901	 630	 easy	 left	 0	 5.001
tex	 1	 1	 6	 771	 615	 easy	 left	 0	 5.001
tex	 1	 1	 7	 736	 602	 easy	 left	 0	 5.001
tex	 1	 1	 8	 982	 939	 easy	 left	 0	 5.001
tex	 1	 1	 9	 1373	 934	 easy	 left	 0	 5.001
tex	 1	 1	 10	 1382	 422	 easy	 left	 0	 5.001
tex	 1	 1	 11	 1247	 362	 easy	 left	 0	 5.001
tex	 1	 1	 12	 1169	 446	 easy	 left	 0	 5.001
tex	 1	 1	 13	 587	 204	 easy	 left	 0	 5.001
tex	 1	 1	 14	 772	 269	 easy	 left	 0	 5.001
tex	 1	 1	 15	 1332	 582	 easy	 left	 0	 5.001
tex	 1	 1	 16	 1238	 574	 easy	 left	 0	 5.001
tex	 1	 1	 17	 916	 597	 easy	 left	 0	 5.001
tex	 1	 2	 1	 955	 541	 easy	 left	 0	 5.001
tex	 1	 2	 2	 975	 572	 easy	 left	 0	 5.001
tex	 1	 2	 3	 766	 509	 easy	 left	 0	 5.001
tex	 1	 2	 4	 1231	 420	 easy	 left	 0	 5.001
tex	 1	 2	 5	 814	 416	 easy	 left	 0	 5.001
tex	 1	 2	 6	 660	 365	 easy	 left	 0	 5.001
tex	 1	 2	 7	 509	 265	 easy	 left	 0	 5.001
tex	 1	 2	 8	 629	 848	 easy	 left	 0	 5.001
tex	 1	 2	 9	 472	 866	 easy	 left	 0	 5.001
tex	 1	 2	 10	 1165	 857	 easy	 left	 0	 5.001
tex	 1	 2	 11	 1345	 936	 easy	 left	 0	 5.001
tex	 1	 2	 12	 865	 793	 easy	 left	 0	 5.001
tex	 1	 2	 13	 697	 705	 easy	 left	 0	 5.001
tex	 1	 2	 14	 780	 734	 easy	 left	 0	 5.001
tex	 1	 3	 1	 949	 523	 easy	 left	 0	 5.001
tex	 1	 3	 2	 964	 495	 easy	 left	 0	 5.001
tex	 1	 3	 3	 783	 386	 easy	 left	 0	 5.001
tex	 1	 3	 4	 1244	 327	 easy	 left	 0	 5.001
tex	 1	 3	 5	 1169	 379	 easy	 left	 0	 5.001
tex	 1	 3	 6	 1346	 338	 easy	 left	 0	 5.001
tex	 1	 3	 7	 1116	 371	 easy	 left	 0	 5.001
tex	 1	 3	 8	 560	 284	 easy	 left	 0	 5.001
tex	 1	 3	 9	 1195	 553	 easy	 left	 0	 5.001
tex	 1	 3	 10	 1246	 640	 easy	 left	 0	 5.001
tex	 1	 3	 11	 1176	 642	 easy	 left	 0	 5.001
tex	 1	 3	 12	 623	 690	 easy	 left	 0	 5.001
tex	 1	 3	 13	 529	 621	 easy	 left	 0	 5.001
tex	 1	 3	 14	 758	 889	 easy	 left	 0	 5.001
tex	 1	 3	 15	 853	 933	 easy	 left	 0	 5.001
tex	 1	 3	 16	 672	 726	 easy	 left	 0	 5.001
tex	 1	 3	 17	 1213	 893	 easy	 left	 0	 5.001
tex	 1	 4	 1	 944	 538	 easy	 left	 0	 5.001
tex	 1	 4	 2	 812	 430	 easy	 left	 0	 5.001
tex	 1	 4	 3	 796	 395	 easy	 left	 0	 5.001
tex	 1	 4	 4	 745	 303	 easy	 left	 0	 5.001
tex	 1	 4	 5	 1100	 469	 easy	 left	 0	 5.001
tex	 1	 4	 6	 931	 485	 easy	 left	 0	 5.001
tex	 1	 4	 7	 980	 548	 easy	 left	 0	 5.001
tex	 1	 4	 8	 805	 629	 easy	 left	 0	 5.001
tex	 1	 4	 9	 724	 681	 easy	 left	 0	 5.001
tex	 1	 4	 10	 1273	 820	 easy	 left	 0	 5.001
tex	 1	 4	 11	 1213	 859	 easy	 left	 0	 5.001
tex	 1	 4	 12	 1409	 941	 easy	 left	 0	 5.001
tex	 1	 4	 13	 1110	 914	 easy	 left	 0	 5.001
tex	 1	 4	 14	 859	 262	 easy	 left	 0	 5.001
tex	 1	 4	 15	 667	 264	 easy	 left	 0	 5.001
tex	 1	 4	 16	 563	 215	 easy	 left	 0	 5.001
tex	 1	 4	 17	 460	 487	 easy	 left	 0	 5.001
tex	 1	 4	 18	 1090	 469	 easy	 left	 0	 5.001
tex	 1	 4	 19	 1253	 335	 easy	 left	 0	 5.001
tex	 1	 5	 1	 942	 527	 easy	 left	 0	 5.001
tex	 1	 5	 2	 955	 510	 easy	 left	 0	 5.001
tex	 1	 5	 3	 833	 504	 easy	 left	 0	 5.001
tex	 1	 5	 4	 664	 516	 easy	 left	 0	 5.001
tex	 1	 5	 5	 500	 533	 easy	 left	 0	 5.001
tex	 1	 5	 6	 809	 658	 easy	 left	 0	 5.001
tex	 1	 5	 7	 892	 711	 easy	 left	 0	 5.001
tex	 1	 5	 8	 533	 892	 easy	 left	 0	 5.001
tex	 1	 5	 9	 576	 823	 easy	 left	 0	 5.001
tex	 1	 5	 10	 1272	 877	 easy	 left	 0	 5.001
tex	 1	 5	 11	 1307	 369	 easy	 left	 0	 5.001
tex	 1	 5	 12	 1173	 389	 easy	 left	 0	 5.001
tex	 1	 5	 13	 1055	 359	 easy	 left	 0	 5.001
tex	 1	 5	 14	 589	 254	 easy	 left	 0	 5.001
tex	 1	 5	 15	 483	 193	 easy	 left	 0	 5.001
tex	 1	 5	 16	 448	 170	 easy	 left	 0	 5.001
tex	 1	 5	 17	 1231	 811	 easy	 left	 0	 5.001
tex	 1	 6	 1	 952	 537	 easy	 left	 0	 5.001
tex	 1	 6	 2	 975	 526	 easy	 left	 0	 5.001
tex	 1	 6	 3	 1032	 479	 easy	 left	 0	 5.001
tex	 1	 6	 4	 1248	 390	 easy	 left	 0	 5.001
tex	 1	 6	 5	 1215	 385	 easy	 left	 0	 5.001
tex	 1	 6	 6	 1246	 397	 easy	 left	 0	 5.001
tex	 1	 6	 7	 1238	 289	 easy	 left	 0	 5.001
tex	 1	 6	 8	 536	 194	 easy	 left	 0	 5.001
tex	 1	 6	 9	 490	 371	 easy	 left	 0	 5.001
tex	 1	 6	 10	 460	 354	 easy	 left	 0	 5.001
tex	 1	 6	 11	 798	 428	 easy	 left	 0	 5.001
tex	 1	 6	 12	 716	 740	 easy	 left	 0	 5.001
tex	 1	 6	 13	 609	 906	 easy	 left	 0	 5.001
tex	 1	 6	 14	 559	 890	 easy	 left	 0	 5.001
tex	 1	 6	 15	 1229	 952	 easy	 left	 0	 5.001
tex	 1	 6	 16	 1380	 932	 easy	 left	 0	 5.001
tex	 1	 6	 17	 993	 927	 easy	 left	 0	 5.001
tex	 1	 6	 18	 1221	 584	 easy	 left	 0	 5.001
tex	 1	 6	 19	 1350	 613	 easy	 left	 0	 5.001
tex	 1	 6	 20	 1426	 366	 easy	 left	 0	 5.001
tex	 1	 7	 1	 928	 515	 easy	 left	 0	 5.001
tex	 1	 7	 2	 844	 519	 easy	 left	 0	 5.001
tex	 1	 7	 3	 716	 482	 easy	 left	 0	 5.001
tex	 1	 7	 4	 622	 435	 easy	 left	 0	 5.001
tex	 1	 7	 5	 572	 603	 easy	 left	 0	 5.001
tex	 1	 7	 6	 1316	 914	 easy	 left	 0	 5.001
tex	 1	 7	 7	 1202	 854	 easy	 left	 0	 5.001
tex	 1	 7	 8	 1230	 837	 easy	 left	 0	 5.001
tex	 1	 7	 9	 1004	 932	 easy	 left	 0	 5.001
tex	 1	 7	 10	 1339	 899	 easy	 left	 0	 5.001
tex	 1	 7	 11	 664	 917	 easy	 left	 0	 5.001
tex	 1	 7	 12	 503	 874	 easy	 left	 0	 5.001
tex	 1	 7	 13	 1281	 323	 easy	 left	 0	 5.001
tex	 1	 7	 14	 1189	 375	 easy	 left	 0	 5.001
tex	 1	 7	 15	 1042	 208	 easy	 left	 0	 5.001
tex	 1	 7	 16	 1156	 432	 easy	 left	 0	 5.001
tex	 1	 7	 17	 1163	 419	 easy	 left	 0	 5.001
tex	 1	 7	 18	 978	 449	 easy	 left	 0	 5.001
tex	 1	 8	 1	 954	 533	 easy	 left	 0	 5.001
tex	 1	 8	 2	 912	 517	 easy	 left	 0	 5.001
tex	 1	 8	 3	 671	 431	 easy	 left	 0	 5.001
tex	 1	 8	 4	 566	 459	 easy	 left	 0	 5.001
tex	 1	 8	 5	 652	 564	 easy	 left	 0	 5.001
tex	 1	 8	 6	 532	 637	 easy	 left	 0	 5.001
tex	 1	 8	 7	 486	 855	 easy	 left	 0	 5.001
tex	 1	 8	 8	 811	 912	 easy	 left	 0	 5.001
tex	 1	 8	 9	 1276	 915	 easy	 left	 0	 5.001
tex	 1	 8	 10	 1444	 918	 easy	 left	 0	 5.001
tex	 1	 8	 11	 1476	 848	 easy	 left	 0	 5.001
tex	 1	 8	 12	 1316	 868	 easy	 left	 0	 5.001
tex	 1	 8	 13	 1485	 867	 easy	 left	 0	 5.001
tex	 1	 8	 14	 1221	 535	 easy	 left	 0	 5.001
tex	 1	 8	 15	 1242	 337	 easy	 left	 0	 5.001
tex	 1	 8	 16	 1463	 839	 easy	 left	 0	 5.001
tex	 1	 8	 17	 1477	 854	 easy	 left	 0	 5.001
tex	 1	 9	 1	 947	 537	 easy	 left	 0	 5.001
tex	 1	 9	 2	 783	 529	 easy	 left	 0	 5.001
tex	 1	 9	 3	 1022	 717	 easy	 left	 0	 5.001
tex	 1	 9	 4	 980	 751	 easy	 left	 0	 5.001
tex	 1	 9	 5	 1283	 884	 easy	 left	 0	 5.001
tex	 1	 9	 6	 1072	 715	 easy	 left	 0	 5.001
tex	 1	 9	 7	 1010	 707	 easy	 left	 0	 5.001
tex	 1	 9	 8	 1285	 256	 easy	 left	 0	 5.001
tex	 1	 9	 9	 566	 189	 easy	 left	 0	 5.001
tex	 1	 9	 10	 450	 312	 easy	 left	 0	 5.001
tex	 1	 9	 11	 856	 675	 easy	 left	 0	 5.001
tex	 1	 9	 12	 984	 879	 easy	 left	 0	 5.001
tex	 1	 9	 13	 1017	 892	 easy	 left	 0	 5.001
tex	 1	 9	 14	 984	 764	 easy	 left	 0	 5.001
tex	 1	 10	 1	 957	 544	 easy	 left	 0	 5.001
tex	 1	 10	 2	 1030	 589	 easy	 left	 0	 5.001
tex	 1	 10	 3	 690	 622	 easy	 left	 0	 5.001
tex	 1	 10	 4	 552	 656	 easy	 left	 0	 5.001
tex	 1	 10	 5	 657	 486	 easy	 left	 0	 5.001
tex	 1	 10	 6	 1144	 340	 easy	 left	 0	 5.001
tex	 1	 10	 7	 1253	 298	 easy	 left	 0	 5.001
tex	 1	 10	 8	 1374	 299	 easy	 left	 0	 5.001
tex	 1	 10	 9	 1421	 227	 easy	 left	 0	 5.001
tex	 1	 10	 10	 1311	 619	 easy	 left	 0	 5.001
tex	 1	 10	 11	 1179	 624	 easy	 left	 0	 5.001
tex	 1	 10	 12	 1178	 772	 easy	 left	 0	 5.001
tex	 1	 10	 13	 1208	 969	 easy	 left	 0	 5.001
tex	 1	 10	 14	 1199	 948	 easy	 left	 0	 5.001
tex	 1	 10	 15	 1046	 839	 easy	 left	 0	 5.001
tex	 1	 10	 16	 1002	 734	 easy	 left	 0	 5.001
tex	 1	 11	 1	 954	 539	 undef	 left	 0	 4.211
tex	 1	 11	 2	 902	 538	 undef	 left	 0	 4.211
tex	 1	 11	 3	 988	 401	 undef	 left	 0	 4.211
tex	 1	 11	 4	 539	 357	 undef	 left	 0	 4.211
tex	 1	 11	 5	 544	 316	 undef	 left	 0	 4.211
tex	 1	 11	 6	 786	 409	 undef	 left	 0	 4.211
tex	 1	 11	 7	 1224	 316	 undef	 left	 0	 4.211
tex	 1	 11	 8	 1262	 472	 undef	 left	 0	 4.211
tex	 1	 11	 9	 1167	 537	 undef	 left	 0	 4.211
tex	 1	 11	 10	 1151	 596	 undef	 left	 0	 4.211
tex	 1	 11	 11	 1443	 743	 undef	 left	 0	 4.211
tex	 1	 11	 12	 1048	 798	 undef	 left	 0	 4.211
tex	 1	 11	 13	 1074	 844	 undef	 left	 0	 4.211
tex	 1	 12	 1	 958	 537	 undef	 left	 0	 2.128
tex	 1	 12	 2	 969	 591	 undef	 left	 0	 2.128
tex	 1	 12	 3	 1181	 843	 undef	 left	 0	 2.128
tex	 1	 12	 4	 870	 839	 undef	 left	 0	 2.128
tex	 1	 12	 5	 1353	 831	 undef	 left	 0	 2.128
tex	 1	 13	 1	 1079	 839	 undef	 left	 1	 13.853
tex	 1	 13	 2	 1208	 756	 undef	 left	 1	 13.853
tex	 1	 13	 3	 1111	 769	 undef	 left	 1	 13.853
tex	 1	 13	 4	 1353	 773	 undef	 left	 1	 13.853
tex	 1	 13	 5	 1289	 369	 undef	 left	 1	 13.853
tex	 1	 13	 6	 1157	 513	 undef	 left	 1	 13.853
tex	 1	 13	 7	 976	 363	 undef	 left	 1	 13.853
tex	 1	 13	 8	 938	 579	 undef	 left	 1	 13.853
tex	 1	 13	 9	 503	 443	 undef	 left	 1	 13.853
tex	 1	 13	 10	 571	 547	 undef	 left	 1	 13.853
tex	 1	 13	 11	 508	 266	 undef	 left	 1	 13.853
tex	 1	 13	 12	 1053	 885	 undef	 left	 1	 13.853
tex	 1	 13	 13	 1197	 868	 undef	 left	 1	 13.853
tex	 1	 13	 14	 1259	 942	 undef	 left	 1	 13.853
tex	 1	 13	 15	 1236	 928	 undef	 left	 1	 13.853
tex	 1	 13	 16	 1256	 939	 undef	 left	 1	 13.853
tex	 1	 13	 17	 1390	 847	 undef	 left	 1	 13.853
tex	 1	 13	 18	 1207	 713	 undef	 left	 1	 13.853
tex	 1	 13	 19	 1100	 764	 undef	 left	 1	 13.853
tex	 1	 13	 20	 1375	 824	 undef	 left	 1	 13.853
tex	 1	 13	 21	 1231	 335	 undef	 left	 1	 13.853
tex	 1	 13	 22	 1319	 288	 undef	 left	 1	 13.853
tex	 1	 13	 23	 1353	 223	 undef	 left	 1	 13.853
tex	 1	 13	 24	 989	 229	 undef	 left	 1	 13.853
tex	 1	 13	 25	 1244	 329	 undef	 left	 1	 13.853
tex	 1	 13	 26	 1378	 605	 undef	 left	 1	 13.853
tex	 1	 13	 27	 763	 871	 undef	 left	 1	 13.853
tex	 1	 13	 28	 527	 909	 undef	 left	 1	 13.853
tex	 1	 13	 29	 1080	 871	 undef	 left	 1	 13.853
tex	 1	 13	 30	 1164	 878	 undef	 left	 1	 13.853
tex	 1	 13	 31	 892	 579	 undef	 left	 1	 13.853
tex	 1	 13	 32	 1045	 566	 undef	 left	 1	 13.853
tex	 1	 13	 33	 1149	 695	 undef	 left	 1	 13.853
tex	 1	 13	 34	 1119	 676	 undef	 left	 1	 13.853
tex	 1	 13	 35	 1240	 540	 undef	 left	 1	 13.853
tex	 1	 13	 36	 1203	 533	 undef	 left	 1	 13.853
tex	 1	 13	 37	 1012	 614	 undef	 left	 1	 13.853
tex	 1	 13	 38	 996	 603	 undef	 left	 1	 13.853
tex	 1	 13	 39	 746	 481	 undef	 left	 1	 13.853
tex	 1	 13	 40	 599	 370	 undef	 left	 1	 13.853
tex	 1	 13	 41	 672	 526	 undef	 left	 1	 13.853
tex	 1	 13	 42	 730	 846	 undef	 left	 1	 13.853
tex	 1	 13	 43	 913	 907	 undef	 left	 1	 13.853
tex	 1	 13	 44	 1246	 921	 undef	 left	 1	 13.853
tex	 1	 13	 45	 1449	 937	 undef	 left	 1	 13.853
tex	 1	 13	 46	 1361	 940	 undef	 left	 1	 13.853
tex	 1	 13	 47	 1393	 302	 undef	 left	 1	 13.853
tex	 1	 13	 48	 1367	 238	 undef	 left	 1	 13.853
tex	 1	 13	 49	 1032	 217	 undef	 left	 1	 13.853
tex	 1	 13	 50	 1298	 305	 undef	 left	 1	 13.853
tex	 1	 14	 1	 939	 577	 undef	 left	 1	 6.287
tex	 1	 14	 2	 1108	 772	 undef	 left	 1	 6.287
tex	 1	 14	 3	 1351	 933	 undef	 left	 1	 6.287
tex	 1	 14	 4	 1041	 631	 undef	 left	 1	 6.287
tex	 1	 14	 5	 1055	 494	 undef	 left	 1	 6.287
tex	 1	 14	 6	 990	 628	 undef	 left	 1	 6.287
tex	 1	 14	 7	 975	 596	 undef	 left	 1	 6.287
tex	 1	 14	 8	 1143	 306	 undef	 left	 1	 6.287
tex	 1	 14	 9	 1013	 264	 undef	 left	 1	 6.287
tex	 1	 14	 10	 517	 210	 undef	 left	 1	 6.287
tex	 1	 14	 11	 621	 606	 undef	 left	 1	 6.287
tex	 1	 14	 12	 740	 781	 undef	 left	 1	 6.287
tex	 1	 14	 13	 629	 916	 undef	 left	 1	 6.287
tex	 1	 14	 14	 556	 896	 undef	 left	 1	 6.287
tex	 1	 14	 15	 1287	 966	 undef	 left	 1	 6.287
tex	 1	 14	 16	 1433	 954	 undef	 left	 1	 6.287
tex	 1	 14	 17	 1409	 932	 undef	 left	 1	 6.287
tex	 1	 14	 18	 1372	 527	 undef	 left	 1	 6.287
tex	 1	 14	 19	 1358	 441	 undef	 left	 1	 6.287
tex	 1	 14	 20	 1343	 391	 undef	 left	 1	 6.287
tex	 1	 14	 21	 1144	 289	 undef	 left	 1	 6.287
tex	 1	 14	 22	 869	 547	 undef	 left	 1	 6.287
tex	 1	 15	 1	 958	 542	 undef	 left	 0	 5.121
tex	 1	 15	 2	 927	 539	 undef	 left	 0	 5.121
tex	 1	 15	 3	 795	 459	 undef	 left	 0	 5.121
tex	 1	 15	 4	 741	 452	 undef	 left	 0	 5.121
tex	 1	 15	 5	 715	 434	 undef	 left	 0	 5.121
tex	 1	 15	 6	 997	 581	 undef	 left	 0	 5.121
tex	 1	 15	 7	 747	 436	 undef	 left	 0	 5.121
tex	 1	 15	 8	 723	 432	 undef	 left	 0	 5.121
tex	 1	 15	 9	 553	 315	 undef	 left	 0	 5.121
tex	 1	 15	 10	 1031	 266	 undef	 left	 0	 5.121
tex	 1	 15	 11	 1160	 386	 undef	 left	 0	 5.121
tex	 1	 15	 12	 1201	 325	 undef	 left	 0	 5.121
tex	 1	 15	 13	 1365	 507	 undef	 left	 0	 5.121
tex	 1	 15	 14	 1320	 505	 undef	 left	 0	 5.121
tex	 1	 15	 15	 1155	 571	 undef	 left	 0	 5.121
tex	 1	 15	 16	 1056	 806	 undef	 left	 0	 5.121
tex	 1	 15	 17	 1038	 879	 undef	 left	 0	 5.121
tex	 1	 15	 18	 1017	 678	 undef	 left	 0	 5.121
tex	 1	 16	 1	 956	 555	 undef	 left	 1	 0.830
tex	 1	 16	 2	 856	 493	 undef	 left	 1	 0.830
tex	 1	 16	 3	 826	 444	 undef	 left	 1	 0.830
tex	 1	 16	 4	 853	 447	 undef	 left	 1	 0.830
tex	 1	 16	 5	 836	 441	 undef	 left	 1	 0.830
tex	 1	 17	 1	 948	 553	 hard	 right	 1	 1.401
tex	 1	 17	 2	 862	 561	 hard	 right	 1	 1.401
tex	 1	 17	 3	 613	 488	 hard	 right	 1	 1.401
tex	 1	 17	 4	 617	 433	 hard	 right	 1	 1.401
tex	 1	 18	 1	 959	 553	 hard	 right	 1	 2.495
tex	 1	 18	 2	 835	 530	 hard	 right	 1	 2.495
tex	 1	 18	 3	 521	 582	 hard	 right	 1	 2.495
tex	 1	 18	 4	 803	 636	 hard	 right	 1	 2.495
tex	 1	 18	 5	 873	 741	 hard	 right	 1	 2.495
tex	 1	 18	 6	 766	 695	 hard	 right	 1	 2.495
tex	 1	 18	 7	 853	 705	 hard	 right	 1	 2.495
tex	 1	 18	 8	 832	 763	 hard	 right	 1	 2.495
tex	 1	 18	 9	 779	 749	 hard	 right	 1	 2.495
tex	 1	 19	 1	 940	 550	 easy	 right	 1	 0.892
tex	 1	 19	 2	 898	 573	 easy	 right	 1	 0.892
tex	 1	 19	 3	 1202	 325	 easy	 right	 1	 0.892
tex	 1	 19	 4	 1219	 302	 easy	 right	 1	 0.892
tex	 1	 20	 1	 962	 533	 hard	 right	 1	 2.508
tex	 1	 20	 2	 896	 552	 hard	 right	 1	 2.508
tex	 1	 20	 3	 1085	 408	 hard	 right	 1	 2.508
tex	 1	 20	 4	 977	 426	 hard	 right	 1	 2.508
tex	 1	 20	 5	 1195	 500	 hard	 right	 1	 2.508
tex	 1	 20	 6	 819	 647	 hard	 right	 1	 2.508
tex	 1	 20	 7	 681	 688	 hard	 right	 1	 2.508
tex	 1	 20	 8	 554	 493	 hard	 right	 1	 2.508
tex	 1	 20	 9	 736	 709	 hard	 right	 1	 2.508
tex	 1	 20	 10	 519	 553	 hard	 right	 1	 2.508
tex	 1	 20	 11	 516	 611	 hard	 right	 1	 2.508
tex	 1	 20	 12	 522	 589	 hard	 right	 1	 2.508
tex	 1	 21	 1	 950	 559	 hard	 right	 1	 2.017
tex	 1	 21	 2	 858	 535	 hard	 right	 1	 2.017
tex	 1	 21	 3	 898	 595	 hard	 right	 1	 2.017
tex	 1	 21	 4	 942	 461	 hard	 right	 1	 2.017
tex	 1	 21	 5	 523	 399	 hard	 right	 1	 2.017
tex	 1	 21	 6	 635	 602	 hard	 right	 1	 2.017
tex	 1	 21	 7	 584	 682	 hard	 right	 1	 2.017
tex	 1	 21	 8	 522	 735	 hard	 right	 1	 2.017
tex	 1	 21	 9	 519	 721	 hard	 right	 1	 2.017
tex	 1	 22	 1	 942	 542	 easy	 left	 1	 0.664
tex	 1	 22	 2	 872	 627	 easy	 left	 1	 0.664
tex	 1	 22	 3	 882	 625	 easy	 left	 1	 0.664
tex	 1	 23	 1	 943	 544	 hard	 left	 1	 4.110
tex	 1	 23	 2	 1133	 618	 hard	 left	 1	 4.110
tex	 1	 23	 3	 1086	 343	 hard	 left	 1	 4.110
tex	 1	 23	 4	 1243	 617	 hard	 left	 1	 4.110
tex	 1	 23	 5	 1075	 814	 hard	 left	 1	 4.110
tex	 1	 23	 6	 541	 801	 hard	 left	 1	 4.110
tex	 1	 23	 7	 1103	 789	 hard	 left	 1	 4.110
tex	 1	 23	 8	 1065	 757	 hard	 left	 1	 4.110
tex	 1	 23	 9	 1045	 837	 hard	 left	 1	 4.110
tex	 1	 23	 10	 1287	 912	 hard	 left	 1	 4.110
tex	 1	 23	 11	 1116	 527	 hard	 left	 1	 4.110
tex	 1	 23	 12	 1067	 547	 hard	 left	 1	 4.110
tex	 1	 23	 13	 1392	 239	 hard	 left	 1	 4.110
tex	 1	 23	 14	 1285	 282	 hard	 left	 1	 4.110
tex	 1	 23	 15	 1048	 310	 hard	 left	 1	 4.110
tex	 1	 23	 16	 987	 359	 hard	 left	 1	 4.110
tex	 1	 24	 1	 936	 539	 easy	 left	 1	 1.049
tex	 1	 24	 2	 684	 463	 easy	 left	 1	 1.049
tex	 1	 24	 3	 560	 358	 easy	 left	 1	 1.049
tex	 1	 25	 1	 744	 447	 easy	 right	 1	 3.490
tex	 1	 25	 2	 668	 492	 easy	 right	 1	 3.490
tex	 1	 25	 3	 560	 414	 easy	 right	 1	 3.490
tex	 1	 25	 4	 876	 559	 easy	 right	 1	 3.490
tex	 1	 25	 5	 1035	 711	 easy	 right	 1	 3.490
tex	 1	 25	 6	 660	 700	 easy	 right	 1	 3.490
tex	 1	 25	 7	 873	 908	 easy	 right	 1	 3.490
tex	 1	 25	 8	 1352	 944	 easy	 right	 1	 3.490
tex	 1	 25	 9	 1186	 342	 easy	 right	 1	 3.490
tex	 1	 25	 10	 1270	 685	 easy	 right	 1	 3.490
tex	 1	 25	 11	 1371	 847	 easy	 right	 1	 3.490
tex	 1	 25	 12	 1347	 783	 easy	 right	 1	 3.490
tex	 1	 25	 13	 566	 261	 easy	 right	 1	 3.490
tex	 1	 25	 14	 580	 381	 easy	 right	 1	 3.490
tex	 1	 26	 1	 950	 546	 hard	 left	 1	 0.611
tex	 1	 26	 2	 895	 537	 hard	 left	 1	 0.611
tex	 1	 26	 3	 1073	 596	 hard	 left	 1	 0.611
tex	 1	 26	 4	 1032	 595	 hard	 left	 1	 0.611
tex	 1	 27	 1	 935	 545	 easy	 right	 0	 3.963
tex	 1	 27	 2	 899	 586	 easy	 right	 0	 3.963
tex	 1	 27	 3	 1024	 588	 easy	 right	 0	 3.963
tex	 1	 27	 4	 596	 478	 easy	 right	 0	 3.963
tex	 1	 27	 5	 554	 325	 easy	 right	 0	 3.963
tex	 1	 27	 6	 874	 873	 easy	 right	 0	 3.963
tex	 1	 27	 7	 674	 911	 easy	 right	 0	 3.963
tex	 1	 27	 8	 927	 935	 easy	 right	 0	 3.963
tex	 1	 27	 9	 1304	 899	 easy	 right	 0	 3.963
tex	 1	 27	 10	 1393	 571	 easy	 right	 0	 3.963
tex	 1	 27	 11	 1203	 533	 easy	 right	 0	 3.963
tex	 1	 27	 12	 1128	 558	 easy	 right	 0	 3.963
tex	 1	 27	 13	 1111	 697	 easy	 right	 0	 3.963
tex	 1	 27	 14	 1124	 670	 easy	 right	 0	 3.963
tex	 1	 28	 1	 957	 541	 hard	 left	 1	 1.858
tex	 1	 28	 2	 914	 532	 hard	 left	 1	 1.858
tex	 1	 28	 3	 976	 597	 hard	 left	 1	 1.858
tex	 1	 28	 4	 654	 417	 hard	 left	 1	 1.858
tex	 1	 28	 5	 1047	 474	 hard	 left	 1	 1.858
tex	 1	 28	 6	 1014	 492	 hard	 left	 1	 1.858
tex	 1	 28	 7	 1366	 499	 hard	 left	 1	 1.858
tex	 1	 28	 8	 1368	 484	 hard	 left	 1	 1.858
tex	 1	 29	 1	 948	 543	 hard	 left	 1	 5.725
tex	 1	 29	 2	 1103	 519	 hard	 left	 1	 5.725
tex	 1	 29	 3	 1004	 518	 hard	 left	 1	 5.725
tex	 1	 29	 4	 976	 482	 hard	 left	 1	 5.725
tex	 1	 29	 5	 524	 517	 hard	 left	 1	 5.725
tex	 1	 29	 6	 506	 603	 hard	 left	 1	 5.725
tex	 1	 29	 7	 454	 921	 hard	 left	 1	 5.725
tex	 1	 29	 8	 461	 895	 hard	 left	 1	 5.725
tex	 1	 29	 9	 842	 920	 hard	 left	 1	 5.725
tex	 1	 29	 10	 798	 916	 hard	 left	 1	 5.725
tex	 1	 29	 11	 1043	 876	 hard	 left	 1	 5.725
tex	 1	 29	 12	 977	 847	 hard	 left	 1	 5.725
tex	 1	 29	 13	 1262	 953	 hard	 left	 1	 5.725
tex	 1	 29	 14	 1217	 936	 hard	 left	 1	 5.725
tex	 1	 29	 15	 1091	 953	 hard	 left	 1	 5.725
tex	 1	 29	 16	 1274	 737	 hard	 left	 1	 5.725
tex	 1	 29	 17	 1207	 723	 hard	 left	 1	 5.725
tex	 1	 29	 18	 1338	 614	 hard	 left	 1	 5.725
tex	 1	 29	 19	 1099	 441	 hard	 left	 1	 5.725
tex	 1	 29	 20	 1105	 294	 hard	 left	 1	 5.725
tex	 1	 29	 21	 623	 262	 hard	 left	 1	 5.725
tex	 1	 29	 22	 532	 295	 hard	 left	 1	 5.725
tex	 1	 29	 23	 932	 238	 hard	 left	 1	 5.725
tex	 1	 29	 24	 808	 206	 hard	 left	 1	 5.725
tex	 1	 30	 1	 955	 536	 easy	 right	 1	 0.621
tex	 1	 30	 2	 903	 522	 easy	 right	 1	 0.621
tex	 1	 30	 3	 1019	 576	 easy	 right	 1	 0.621
tex	 1	 30	 4	 1016	 563	 easy	 right	 1	 0.621
tex	 1	 31	 1	 953	 527	 easy	 left	 1	 6.032
tex	 1	 31	 2	 1026	 494	 easy	 left	 1	 6.032
tex	 1	 31	 3	 840	 534	 easy	 left	 1	 6.032
tex	 1	 31	 4	 749	 663	 easy	 left	 1	 6.032
tex	 1	 31	 5	 535	 594	 easy	 left	 1	 6.032
tex	 1	 31	 6	 1008	 677	 easy	 left	 1	 6.032
tex	 1	 31	 7	 1273	 670	 easy	 left	 1	 6.032
tex	 1	 31	 8	 1441	 677	 easy	 left	 1	 6.032
tex	 1	 31	 9	 1473	 641	 easy	 left	 1	 6.032
tex	 1	 31	 10	 1026	 308	 easy	 left	 1	 6.032
tex	 1	 31	 11	 1013	 386	 easy	 left	 1	 6.032
tex	 1	 31	 12	 1024	 570	 easy	 left	 1	 6.032
tex	 1	 31	 13	 710	 818	 easy	 left	 1	 6.032
tex	 1	 31	 14	 566	 848	 easy	 left	 1	 6.032
tex	 1	 31	 15	 547	 844	 easy	 left	 1	 6.032
tex	 1	 31	 16	 1056	 922	 easy	 left	 1	 6.032
tex	 1	 31	 17	 1174	 899	 easy	 left	 1	 6.032
tex	 1	 31	 18	 1306	 833	 easy	 left	 1	 6.032
tex	 1	 31	 19	 1300	 311	 easy	 left	 1	 6.032
tex	 1	 31	 20	 740	 196	 easy	 left	 1	 6.032
tex	 1	 31	 21	 1097	 196	 easy	 left	 1	 6.032
tex	 1	 31	 22	 1073	 196	 easy	 left	 1	 6.032
tex	 1	 31	 23	 971	 267	 easy	 left	 1	 6.032
tex	 1	 32	 1	 954	 537	 hard	 right	 1	 8.461
tex	 1	 32	 2	 857	 606	 hard	 right	 1	 8.461
tex	 1	 32	 3	 1120	 766	 hard	 right	 1	 8.461
tex	 1	 32	 4	 973	 741	 hard	 right	 1	 8.461
tex	 1	 32	 5	 514	 590	 hard	 right	 1	 8.461
tex	 1	 32	 6	 594	 643	 hard	 right	 1	 8.461
tex	 1	 32	 7	 539	 639	 hard	 right	 1	 8.461
tex	 1	 32	 8	 462	 399	 hard	 right	 1	 8.461
tex	 1	 32	 9	 933	 286	 hard	 right	 1	 8.461
tex	 1	 32	 10	 828	 271	 hard	 right	 1	 8.461
tex	 1	 32	 11	 756	 376	 hard	 right	 1	 8.461
tex	 1	 32	 12	 515	 300	 hard	 right	 1	 8.461
tex	 1	 32	 13	 545	 356	 hard	 right	 1	 8.461
tex	 1	 32	 14	 707	 564	 hard	 right	 1	 8.461
tex	 1	 32	 15	 678	 556	 hard	 right	 1	 8.461
tex	 1	 32	 16	 888	 700	 hard	 right	 1	 8.461
tex	 1	 32	 17	 1119	 800	 hard	 right	 1	 8.461
tex	 1	 32	 18	 841	 870	 hard	 right	 1	 8.461
tex	 1	 32	 19	 654	 893	 hard	 right	 1	 8.461
tex	 1	 32	 20	 1386	 927	 hard	 right	 1	 8.461
tex	 1	 32	 21	 1406	 513	 hard	 right	 1	 8.461
tex	 1	 32	 22	 1250	 474	 hard	 right	 1	 8.461
tex	 1	 32	 23	 1004	 265	 hard	 right	 1	 8.461
tex	 1	 32	 24	 1062	 343	 hard	 right	 1	 8.461
tex	 1	 32	 25	 599	 259	 hard	 right	 1	 8.461
tex	 1	 32	 26	 752	 349	 hard	 right	 1	 8.461
tex	 1	 32	 27	 889	 493	 hard	 right	 1	 8.461
tex	 1	 32	 28	 852	 460	 hard	 right	 1	 8.461
tex	 1	 32	 29	 1204	 451	 hard	 right	 1	 8.461
tex	 1	 32	 30	 1111	 461	 hard	 right	 1	 8.461
tex	 1	 32	 31	 959	 783	 hard	 right	 1	 8.461
tex	 1	 32	 32	 597	 907	 hard	 right	 1	 8.461
tex	 1	 32	 33	 857	 941	 hard	 right	 1	 8.461
tex	 1	 33	 1	 956	 562	 hard	 left	 1	 4.466
tex	 1	 33	 2	 1051	 448	 hard	 left	 1	 4.466
tex	 1	 33	 3	 1086	 316	 hard	 left	 1	 4.466
tex	 1	 33	 4	 492	 585	 hard	 left	 1	 4.466
tex	 1	 33	 5	 443	 532	 hard	 left	 1	 4.466
tex	 1	 33	 6	 963	 728	 hard	 left	 1	 4.466
tex	 1	 33	 7	 1167	 919	 hard	 left	 1	 4.466
tex	 1	 33	 8	 1164	 785	 hard	 left	 1	 4.466
tex	 1	 33	 9	 1095	 691	 hard	 left	 1	 4.466
tex	 1	 33	 10	 1035	 673	 hard	 left	 1	 4.466
tex	 1	 33	 11	 1042	 699	 hard	 left	 1	 4.466
tex	 1	 33	 12	 499	 845	 hard	 left	 1	 4.466
tex	 1	 33	 13	 644	 910	 hard	 left	 1	 4.466
tex	 1	 33	 14	 828	 275	 hard	 left	 1	 4.466
tex	 1	 33	 15	 735	 296	 hard	 left	 1	 4.466
tex	 1	 33	 16	 645	 258	 hard	 left	 1	 4.466
tex	 1	 33	 17	 1125	 376	 hard	 left	 1	 4.466
tex	 1	 34	 1	 944	 535	 hard	 right	 1	 4.770
tex	 1	 34	 2	 874	 523	 hard	 right	 1	 4.770
tex	 1	 34	 3	 796	 497	 hard	 right	 1	 4.770
tex	 1	 34	 4	 500	 616	 hard	 right	 1	 4.770
tex	 1	 34	 5	 503	 755	 hard	 right	 1	 4.770
tex	 1	 34	 6	 506	 866	 hard	 right	 1	 4.770
tex	 1	 34	 7	 520	 851	 hard	 right	 1	 4.770
tex	 1	 34	 8	 1001	 831	 hard	 right	 1	 4.770
tex	 1	 34	 9	 1293	 849	 hard	 right	 1	 4.770
tex	 1	 34	 10	 1448	 838	 hard	 right	 1	 4.770
tex	 1	 34	 11	 938	 847	 hard	 right	 1	 4.770
tex	 1	 34	 12	 912	 377	 hard	 right	 1	 4.770
tex	 1	 34	 13	 756	 346	 hard	 right	 1	 4.770
tex	 1	 34	 14	 725	 436	 hard	 right	 1	 4.770
tex	 1	 34	 15	 658	 484	 hard	 right	 1	 4.770
tex	 1	 34	 16	 465	 221	 hard	 right	 1	 4.770
tex	 1	 34	 17	 1205	 411	 hard	 right	 1	 4.770
tex	 1	 34	 18	 1099	 461	 hard	 right	 1	 4.770
tex	 1	 35	 1	 952	 546	 hard	 right	 1	 4.832
tex	 1	 35	 2	 846	 528	 hard	 right	 1	 4.832
tex	 1	 35	 3	 1026	 833	 hard	 right	 1	 4.832
tex	 1	 35	 4	 1099	 815	 hard	 right	 1	 4.832
tex	 1	 35	 5	 732	 739	 hard	 right	 1	 4.832
tex	 1	 35	 6	 1023	 829	 hard	 right	 1	 4.832
tex	 1	 35	 7	 1053	 852	 hard	 right	 1	 4.832
tex	 1	 35	 8	 988	 774	 hard	 right	 1	 4.832
tex	 1	 35	 9	 661	 753	 hard	 right	 1	 4.832
tex	 1	 35	 10	 600	 442	 hard	 right	 1	 4.832
tex	 1	 35	 11	 981	 251	 hard	 right	 1	 4.832
tex	 1	 35	 12	 939	 357	 hard	 right	 1	 4.832
tex	 1	 35	 13	 909	 364	 hard	 right	 1	 4.832
tex	 1	 35	 14	 879	 370	 hard	 right	 1	 4.832
tex	 1	 35	 15	 584	 403	 hard	 right	 1	 4.832
tex	 1	 35	 16	 650	 602	 hard	 right	 1	 4.832
tex	 1	 35	 17	 557	 262	 hard	 right	 1	 4.832
tex	 1	 36	 1	 953	 549	 hard	 right	 1	 6.290
tex	 1	 36	 2	 817	 614	 hard	 right	 1	 6.290
tex	 1	 36	 3	 560	 531	 hard	 right	 1	 6.290
tex	 1	 36	 4	 844	 747	 hard	 right	 1	 6.290
tex	 1	 36	 5	 1257	 885	 hard	 right	 1	 6.290
tex	 1	 36	 6	 1003	 875	 hard	 right	 1	 6.290
tex	 1	 36	 7	 870	 701	 hard	 right	 1	 6.290
tex	 1	 36	 8	 707	 948	 hard	 right	 1	 6.290
tex	 1	 36	 9	 479	 925	 hard	 right	 1	 6.290
tex	 1	 36	 10	 854	 719	 hard	 right	 1	 6.290
tex	 1	 36	 11	 770	 727	 hard	 right	 1	 6.290
tex	 1	 36	 12	 1154	 694	 hard	 right	 1	 6.290
tex	 1	 36	 13	 1169	 346	 hard	 right	 1	 6.290
tex	 1	 36	 14	 1006	 438	 hard	 right	 1	 6.290
tex	 1	 36	 15	 775	 423	 hard	 right	 1	 6.290
tex	 1	 36	 16	 822	 482	 hard	 right	 1	 6.290
tex	 1	 36	 17	 638	 430	 hard	 right	 1	 6.290
tex	 1	 36	 18	 570	 362	 hard	 right	 1	 6.290
tex	 1	 36	 19	 531	 326	 hard	 right	 1	 6.290
tex	 1	 36	 20	 488	 307	 hard	 right	 1	 6.290
tex	 1	 36	 21	 762	 337	 hard	 right	 1	 6.290
tex	 1	 36	 22	 670	 371	 hard	 right	 1	 6.290
tex	 1	 37	 1	 922	 519	 easy	 right	 1	 6.470
tex	 1	 37	 2	 841	 505	 easy	 right	 1	 6.470
tex	 1	 37	 3	 564	 557	 easy	 right	 1	 6.470
tex	 1	 37	 4	 610	 371	 easy	 right	 1	 6.470
tex	 1	 37	 5	 577	 601	 easy	 right	 1	 6.470
tex	 1	 37	 6	 1081	 548	 easy	 right	 1	 6.470
tex	 1	 37	 7	 970	 584	 easy	 right	 1	 6.470
tex	 1	 37	 8	 937	 551	 easy	 right	 1	 6.470
tex	 1	 37	 9	 944	 655	 easy	 right	 1	 6.470
tex	 1	 37	 10	 1077	 645	 easy	 right	 1	 6.470
tex	 1	 37	 11	 875	 610	 easy	 right	 1	 6.470
tex	 1	 37	 12	 719	 580	 easy	 right	 1	 6.470
tex	 1	 37	 13	 773	 640	 easy	 right	 1	 6.470
tex	 1	 37	 14	 938	 560	 easy	 right	 1	 6.470
tex	 1	 37	 15	 1281	 659	 easy	 right	 1	 6.470
tex	 1	 37	 16	 1146	 672	 easy	 right	 1	 6.470
tex	 1	 37	 17	 1047	 794	 easy	 right	 1	 6.470
tex	 1	 37	 18	 823	 758	 easy	 right	 1	 6.470
tex	 1	 38	 1	 949	 560	 easy	 right	 1	 5.400
tex	 1	 38	 2	 848	 644	 easy	 right	 1	 5.400
tex	 1	 38	 3	 674	 555	 easy	 right	 1	 5.400
tex	 1	 38	 4	 576	 492	 easy	 right	 1	 5.400
tex	 1	 38	 5	 595	 279	 easy	 right	 1	 5.400
tex	 1	 38	 6	 1040	 318	 easy	 right	 1	 5.400
tex	 1	 38	 7	 1158	 555	 easy	 right	 1	 5.400
tex	 1	 38	 8	 1210	 831	 easy	 right	 1	 5.400
tex	 1	 38	 9	 650	 891	 easy	 right	 1	 5.400
tex	 1	 38	 10	 1283	 615	 easy	 right	 1	 5.400
tex	 1	 38	 11	 1240	 605	 easy	 right	 1	 5.400
tex	 1	 38	 12	 744	 891	 easy	 right	 1	 5.400
tex	 1	 38	 13	 584	 897	 easy	 right	 1	 5.400
tex	 1	 38	 14	 481	 921	 easy	 right	 1	 5.400
tex	 1	 38	 15	 865	 418	 easy	 right	 1	 5.400
tex	 1	 38	 16	 730	 365	 easy	 right	 1	 5.400
tex	 1	 38	 17	 545	 273	 easy	 right	 1	 5.400
tex	 1	 38	 18	 857	 205	 easy	 right	 1	 5.400
tex	 1	 39	 1	 963	 512	 hard	 left	 1	 4.277
tex	 1	 39	 2	 804	 525	 hard	 left	 1	 4.277
tex	 1	 39	 3	 516	 563	 hard	 left	 1	 4.277
tex	 1	 39	 4	 1022	 594	 hard	 left	 1	 4.277
tex	 1	 39	 5	 1224	 783	 hard	 left	 1	 4.277
tex	 1	 39	 6	 1156	 886	 hard	 left	 1	 4.277
tex	 1	 39	 7	 1184	 923	 hard	 left	 1	 4.277
tex	 1	 39	 8	 1270	 360	 hard	 left	 1	 4.277
tex	 1	 39	 9	 1117	 322	 hard	 left	 1	 4.277
tex	 1	 39	 10	 1244	 426	 hard	 left	 1	 4.277
tex	 1	 39	 11	 1128	 998	 hard	 left	 1	 4.277
tex	 1	 39	 12	 1126	 913	 hard	 left	 1	 4.277
tex	 1	 39	 13	 1327	 939	 hard	 left	 1	 4.277
tex	 1	 39	 14	 1108	 866	 hard	 left	 1	 4.277
tex	 1	 39	 15	 644	 380	 hard	 left	 1	 4.277
tex	 1	 39	 16	 588	 352	 hard	 left	 1	 4.277
tex	 1	 39	 17	 544	 643	 hard	 left	 1	 4.277
tex	 1	 40	 1	 950	 546	 hard	 right	 1	 1.381
tex	 1	 40	 2	 956	 545	 hard	 right	 1	 1.381
tex	 1	 40	 3	 872	 549	 hard	 right	 1	 1.381
tex	 1	 40	 4	 768	 473	 hard	 right	 1	 1.381
tex	 1	 40	 5	 507	 550	 hard	 right	 1	 1.381
tex	 1	 41	 1	 726	 588	 easy	 left	 1	 0.687
tex	 1	 41	 2	 669	 561	 easy	 left	 1	 0.687
tex	 1	 42	 1	 637	 563	 hard	 right	 1	 0.904
tex	 1	 42	 2	 743	 572	 hard	 right	 1	 0.904
tex	 1	 42	 3	 785	 369	 hard	 right	 1	 0.904
tex	 1	 42	 4	 765	 352	 hard	 right	 1	 0.904
tex	 1	 43	 1	 751	 484	 hard	 left	 1	 4.660
tex	 1	 43	 2	 965	 501	 hard	 left	 1	 4.660
tex	 1	 43	 3	 1221	 521	 hard	 left	 1	 4.660
tex	 1	 43	 4	 1222	 471	 hard	 left	 1	 4.660
tex	 1	 43	 5	 1290	 794	 hard	 left	 1	 4.660
tex	 1	 43	 6	 1270	 723	 hard	 left	 1	 4.660
tex	 1	 43	 7	 1366	 964	 hard	 left	 1	 4.660
tex	 1	 43	 8	 1379	 945	 hard	 left	 1	 4.660
tex	 1	 43	 9	 592	 913	 hard	 left	 1	 4.660
tex	 1	 43	 10	 452	 913	 hard	 left	 1	 4.660
tex	 1	 43	 11	 579	 404	 hard	 left	 1	 4.660
tex	 1	 43	 12	 749	 578	 hard	 left	 1	 4.660
tex	 1	 43	 13	 552	 470	 hard	 left	 1	 4.660
tex	 1	 43	 14	 469	 454	 hard	 left	 1	 4.660
tex	 1	 43	 15	 1214	 292	 hard	 left	 1	 4.660
tex	 1	 43	 16	 1070	 277	 hard	 left	 1	 4.660
tex	 1	 43	 17	 1054	 296	 hard	 left	 1	 4.660
tex	 1	 44	 1	 948	 540	 hard	 right	 1	 3.620
tex	 1	 44	 2	 965	 527	 hard	 right	 1	 3.620
tex	 1	 44	 3	 816	 607	 hard	 right	 1	 3.620
tex	 1	 44	 4	 497	 494	 hard	 right	 1	 3.620
tex	 1	 44	 5	 717	 797	 hard	 right	 1	 3.620
tex	 1	 44	 6	 1108	 914	 hard	 right	 1	 3.620
tex	 1	 44	 7	 1192	 889	 hard	 right	 1	 3.620
tex	 1	 44	 8	 1253	 437	 hard	 right	 1	 3.620
tex	 1	 44	 9	 1089	 361	 hard	 right	 1	 3.620
tex	 1	 44	 10	 796	 330	 hard	 right	 1	 3.620
tex	 1	 44	 11	 779	 542	 hard	 right	 1	 3.620
tex	 1	 44	 12	 801	 593	 hard	 right	 1	 3.620
tex	 1	 45	 1	 954	 547	 easy	 left	 1	 3.573
tex	 1	 45	 2	 835	 467	 easy	 left	 1	 3.573
tex	 1	 45	 3	 814	 445	 easy	 left	 1	 3.573
tex	 1	 45	 4	 1110	 408	 easy	 left	 1	 3.573
tex	 1	 45	 5	 1026	 472	 easy	 left	 1	 3.573
tex	 1	 45	 6	 1391	 362	 easy	 left	 1	 3.573
tex	 1	 45	 7	 1421	 859	 easy	 left	 1	 3.573
tex	 1	 45	 8	 966	 836	 easy	 left	 1	 3.573
tex	 1	 45	 9	 949	 672	 easy	 left	 1	 3.573
tex	 1	 45	 10	 1018	 551	 easy	 left	 1	 3.573
tex	 1	 45	 11	 617	 578	 easy	 left	 1	 3.573
tex	 1	 45	 12	 1020	 697	 easy	 left	 1	 3.573
tex	 1	 45	 13	 637	 202	 easy	 left	 1	 3.573
tex	 1	 45	 14	 942	 150	 easy	 left	 1	 3.573
tex	 1	 46	 1	 948	 541	 easy	 right	 1	 0.655
tex	 1	 46	 2	 900	 531	 easy	 right	 1	 0.655
tex	 1	 46	 3	 994	 774	 easy	 right	 1	 0.655
tex	 1	 46	 4	 1057	 814	 easy	 right	 1	 0.655
tex	 1	 47	 1	 939	 534	 hard	 left	 1	 1.462
tex	 1	 47	 2	 1026	 688	 hard	 left	 1	 1.462
tex	 1	 47	 3	 534	 619	 hard	 left	 1	 1.462
tex	 1	 47	 4	 804	 852	 hard	 left	 1	 1.462
tex	 1	 47	 5	 1076	 863	 hard	 left	 1	 1.462
tex	 1	 47	 6	 1097	 854	 hard	 left	 1	 1.462
tex	 1	 48	 1	 956	 562	 easy	 left	 1	 4.208
tex	 1	 48	 2	 1044	 769	 easy	 left	 1	 4.208
tex	 1	 48	 3	 1178	 779	 easy	 left	 1	 4.208
tex	 1	 48	 4	 1117	 358	 easy	 left	 1	 4.208
tex	 1	 48	 5	 1089	 511	 easy	 left	 1	 4.208
tex	 1	 48	 6	 1412	 648	 easy	 left	 1	 4.208
tex	 1	 48	 7	 1277	 679	 easy	 left	 1	 4.208
tex	 1	 48	 8	 607	 741	 easy	 left	 1	 4.208
tex	 1	 48	 9	 504	 651	 easy	 left	 1	 4.208
tex	 1	 48	 10	 660	 302	 easy	 left	 1	 4.208
tex	 1	 48	 11	 908	 370	 easy	 left	 1	 4.208
tex	 1	 48	 12	 513	 200	 easy	 left	 1	 4.208
tex	 1	 48	 13	 995	 330	 easy	 left	 1	 4.208
tex	 1	 48	 14	 1298	 314	 easy	 left	 1	 4.208
tex	 1	 48	 15	 1006	 428	 easy	 left	 1	 4.208
tex	 1	 48	 16	 1090	 426	 easy	 left	 1	 4.208
tex	 1	 49	 1	 948	 518	 easy	 left	 0	 0.013
tex	 1	 50	 1	 952	 516	 hard	 right	 1	 5.479
tex	 1	 50	 2	 879	 546	 hard	 right	 1	 5.479
tex	 1	 50	 3	 529	 675	 hard	 right	 1	 5.479
tex	 1	 50	 4	 721	 475	 hard	 right	 1	 5.479
tex	 1	 50	 5	 804	 425	 hard	 right	 1	 5.479
tex	 1	 50	 6	 898	 369	 hard	 right	 1	 5.479
tex	 1	 50	 7	 796	 449	 hard	 right	 1	 5.479
tex	 1	 50	 8	 809	 431	 hard	 right	 1	 5.479
tex	 1	 50	 9	 659	 489	 hard	 right	 1	 5.479
tex	 1	 50	 10	 815	 425	 hard	 right	 1	 5.479
tex	 1	 50	 11	 650	 500	 hard	 right	 1	 5.479
tex	 1	 50	 12	 1082	 619	 hard	 right	 1	 5.479
tex	 1	 50	 13	 969	 642	 hard	 right	 1	 5.479
tex	 1	 50	 14	 1275	 882	 hard	 right	 1	 5.479
tex	 1	 50	 15	 966	 889	 hard	 right	 1	 5.479
tex	 1	 50	 16	 616	 880	 hard	 right	 1	 5.479
tex	 1	 50	 17	 511	 839	 hard	 right	 1	 5.479
tex	 1	 50	 18	 461	 706	 hard	 right	 1	 5.479
tex	 1	 50	 19	 495	 402	 hard	 right	 1	 5.479
tex	 1	 50	 20	 559	 222	 hard	 right	 1	 5.479
tex	 1	 50	 21	 468	 306	 hard	 right	 1	 5.479
tex	 1	 50	 22	 809	 327	 hard	 right	 1	 5.479
tex	 1	 51	 1	 938	 533	 hard	 left	 1	 0.935
tex	 1	 51	 2	 829	 580	 hard	 left	 1	 0.935
tex	 1	 51	 3	 1016	 673	 hard	 left	 1	 0.935
tex	 1	 51	 4	 1076	 769	 hard	 left	 1	 0.935
tex	 1	 51	 5	 1070	 749	 hard	 left	 1	 0.935
tex	 1	 52	 1	 945	 566	 easy	 left	 1	 2.435
tex	 1	 52	 2	 951	 612	 easy	 left	 1	 2.435
tex	 1	 52	 3	 1007	 659	 easy	 left	 1	 2.435
tex	 1	 52	 4	 738	 480	 easy	 left	 1	 2.435
tex	 1	 52	 5	 1115	 784	 easy	 left	 1	 2.435
tex	 1	 52	 6	 922	 739	 easy	 left	 1	 2.435
tex	 1	 52	 7	 823	 689	 easy	 left	 1	 2.435
tex	 1	 52	 8	 668	 640	 easy	 left	 1	 2.435
tex	 1	 52	 9	 1003	 808	 easy	 left	 1	 2.435
tex	 1	 52	 10	 1258	 683	 easy	 left	 1	 2.435
tex	 1	 52	 11	 1146	 635	 easy	 left	 1	 2.435
tex	 1	 52	 12	 1099	 446	 easy	 left	 1	 2.435
tex	 1	 53	 1	 879	 542	 hard	 left	 1	 4.096
tex	 1	 53	 2	 932	 533	 hard	 left	 1	 4.096
tex	 1	 53	 3	 1037	 578	 hard	 left	 1	 4.096
tex	 1	 53	 4	 1015	 708	 hard	 left	 1	 4.096
tex	 1	 53	 5	 1055	 755	 hard	 left	 1	 4.096
tex	 1	 53	 6	 1322	 255	 hard	 left	 1	 4.096
tex	 1	 53	 7	 1410	 916	 hard	 left	 1	 4.096
tex	 1	 53	 8	 1310	 840	 hard	 left	 1	 4.096
tex	 1	 53	 9	 587	 772	 hard	 left	 1	 4.096
tex	 1	 53	 10	 466	 462	 hard	 left	 1	 4.096
tex	 1	 53	 11	 997	 357	 hard	 left	 1	 4.096
tex	 1	 53	 12	 1014	 488	 hard	 left	 1	 4.096
tex	 1	 53	 13	 1144	 308	 hard	 left	 1	 4.096
tex	 1	 53	 14	 1077	 448	 hard	 left	 1	 4.096
tex	 1	 54	 1	 938	 520	 easy	 right	 1	 3.657
tex	 1	 54	 2	 803	 494	 easy	 right	 1	 3.657
tex	 1	 54	 3	 722	 552	 easy	 right	 1	 3.657
tex	 1	 54	 4	 577	 409	 easy	 right	 1	 3.657
tex	 1	 54	 5	 723	 601	 easy	 right	 1	 3.657
tex	 1	 54	 6	 715	 582	 easy	 right	 1	 3.657
tex	 1	 54	 7	 705	 560	 easy	 right	 1	 3.657
tex	 1	 54	 8	 725	 557	 easy	 right	 1	 3.657
tex	 1	 54	 9	 592	 474	 easy	 right	 1	 3.657
tex	 1	 54	 10	 1013	 647	 easy	 right	 1	 3.657
tex	 1	 54	 11	 1300	 759	 easy	 right	 1	 3.657
tex	 1	 54	 12	 971	 773	 easy	 right	 1	 3.657
tex	 1	 54	 13	 803	 780	 easy	 right	 1	 3.657
tex	 1	 54	 14	 735	 500	 easy	 right	 1	 3.657
tex	 1	 55	 1	 947	 545	 easy	 left	 1	 0.670
tex	 1	 55	 2	 691	 863	 easy	 left	 1	 0.670
tex	 1	 55	 3	 711	 848	 easy	 left	 1	 0.670
tex	 1	 56	 1	 925	 553	 easy	 right	 1	 2.196
tex	 1	 56	 2	 799	 606	 easy	 right	 1	 2.196
tex	 1	 56	 3	 649	 560	 easy	 right	 1	 2.196
tex	 1	 56	 4	 1320	 505	 easy	 right	 1	 2.196
tex	 1	 56	 5	 1455	 507	 easy	 right	 1	 2.196
tex	 1	 56	 6	 670	 610	 easy	 right	 1	 2.196
tex	 1	 56	 7	 510	 563	 easy	 right	 1	 2.196
tex	 1	 56	 8	 749	 471	 easy	 right	 1	 2.196
tex	 1	 56	 9	 663	 469	 easy	 right	 1	 2.196
tex	 1	 56	 10	 646	 550	 easy	 right	 1	 2.196
tex	 1	 57	 1	 942	 537	 hard	 left	 1	 3.391
tex	 1	 57	 2	 1007	 495	 hard	 left	 1	 3.391
tex	 1	 57	 3	 989	 681	 hard	 left	 1	 3.391
tex	 1	 57	 4	 975	 659	 hard	 left	 1	 3.391
tex	 1	 57	 5	 1360	 573	 hard	 left	 1	 3.391
tex	 1	 57	 6	 1127	 891	 hard	 left	 1	 3.391
tex	 1	 57	 7	 1233	 495	 hard	 left	 1	 3.391
tex	 1	 57	 8	 1200	 478	 hard	 left	 1	 3.391
tex	 1	 57	 9	 1229	 475	 hard	 left	 1	 3.391
tex	 1	 57	 10	 1339	 258	 hard	 left	 1	 3.391
tex	 1	 57	 11	 679	 307	 hard	 left	 1	 3.391
tex	 1	 57	 12	 575	 592	 hard	 left	 1	 3.391
tex	 1	 58	 1	 950	 537	 hard	 right	 1	 2.456
tex	 1	 58	 2	 874	 522	 hard	 right	 1	 2.456
tex	 1	 58	 3	 911	 460	 hard	 right	 1	 2.456
tex	 1	 58	 4	 938	 635	 hard	 right	 1	 2.456
tex	 1	 58	 5	 524	 375	 hard	 right	 1	 2.456
tex	 1	 58	 6	 615	 461	 hard	 right	 1	 2.456
tex	 1	 58	 7	 1139	 591	 hard	 right	 1	 2.456
tex	 1	 58	 8	 975	 701	 hard	 right	 1	 2.456
tex	 1	 58	 9	 630	 839	 hard	 right	 1	 2.456
tex	 1	 59	 1	 950	 545	 easy	 left	 1	 0.696
tex	 1	 59	 2	 558	 731	 easy	 left	 1	 0.696
tex	 1	 59	 3	 530	 736	 easy	 left	 1	 0.696
tex	 1	 60	 1	 954	 552	 easy	 left	 1	 1.998
tex	 1	 60	 2	 901	 585	 easy	 left	 1	 1.998
tex	 1	 60	 3	 1033	 769	 easy	 left	 1	 1.998
tex	 1	 60	 4	 550	 851	 easy	 left	 1	 1.998
tex	 1	 60	 5	 1136	 843	 easy	 left	 1	 1.998
tex	 1	 60	 6	 1065	 455	 easy	 left	 1	 1.998
tex	 1	 60	 7	 979	 487	 easy	 left	 1	 1.998
tex	 1	 61	 1	 946	 531	 hard	 left	 1	 4.427
tex	 1	 61	 2	 924	 529	 hard	 left	 1	 4.427
tex	 1	 61	 3	 1071	 714	 hard	 left	 1	 4.427
tex	 1	 61	 4	 1458	 879	 hard	 left	 1	 4.427
tex	 1	 61	 5	 992	 752	 hard	 left	 1	 4.427
tex	 1	 61	 6	 1323	 820	 hard	 left	 1	 4.427
tex	 1	 61	 7	 1014	 604	 hard	 left	 1	 4.427
tex	 1	 61	 8	 1124	 337	 hard	 left	 1	 4.427
tex	 1	 61	 9	 1018	 557	 hard	 left	 1	 4.427
tex	 1	 61	 10	 978	 545	 hard	 left	 1	 4.427
tex	 1	 61	 11	 999	 630	 hard	 left	 1	 4.427
tex	 1	 61	 12	 1045	 393	 hard	 left	 1	 4.427
tex	 1	 61	 13	 628	 525	 hard	 left	 1	 4.427
tex	 1	 61	 14	 621	 670	 hard	 left	 1	 4.427
tex	 1	 61	 15	 1020	 737	 hard	 left	 1	 4.427
tex	 1	 62	 1	 953	 548	 easy	 right	 1	 0.608
tex	 1	 62	 2	 922	 549	 easy	 right	 1	 0.608
tex	 1	 62	 3	 1355	 416	 easy	 right	 1	 0.608
tex	 1	 62	 4	 1404	 429	 easy	 right	 1	 0.608
tex	 1	 64	 1	 949	 546	 easy	 right	 1	 0.631
tex	 1	 64	 2	 961	 534	 easy	 right	 1	 0.631
tex	 1	 64	 3	 1257	 564	 easy	 right	 1	 0.631
tex	 1	 64	 4	 1306	 576	 easy	 right	 1	 0.631
tex	 1	 65	 1	 948	 555	 hard	 left	 1	 2.965
tex	 1	 65	 2	 1036	 583	 hard	 left	 1	 2.965
tex	 1	 65	 3	 1218	 654	 hard	 left	 1	 2.965
tex	 1	 65	 4	 652	 608	 hard	 left	 1	 2.965
tex	 1	 65	 5	 782	 731	 hard	 left	 1	 2.965
tex	 1	 65	 6	 502	 444	 hard	 left	 1	 2.965
tex	 1	 65	 7	 1042	 283	 hard	 left	 1	 2.965
tex	 1	 65	 8	 1201	 634	 hard	 left	 1	 2.965
tex	 1	 65	 9	 1155	 738	 hard	 left	 1	 2.965
tex	 1	 65	 10	 1263	 482	 hard	 left	 1	 2.965
tex	 1	 65	 11	 1397	 860	 hard	 left	 1	 2.965
tex	 1	 65	 12	 699	 855	 hard	 left	 1	 2.965
tex	 1	 66	 1	 943	 539	 hard	 right	 1	 1.598
tex	 1	 66	 2	 833	 606	 hard	 right	 1	 1.598
tex	 1	 66	 3	 893	 656	 hard	 right	 1	 1.598
tex	 1	 66	 4	 517	 539	 hard	 right	 1	 1.598
tex	 1	 66	 5	 529	 242	 hard	 right	 1	 1.598
tex	 1	 66	 6	 505	 225	 hard	 right	 1	 1.598
tex	 1	 66	 7	 518	 215	 hard	 right	 1	 1.598
tex	 1	 67	 1	 935	 529	 easy	 right	 1	 2.251
tex	 1	 67	 2	 791	 603	 easy	 right	 1	 2.251
tex	 1	 67	 3	 616	 406	 easy	 right	 1	 2.251
tex	 1	 67	 4	 665	 586	 easy	 right	 1	 2.251
tex	 1	 67	 5	 692	 309	 easy	 right	 1	 2.251
tex	 1	 67	 6	 1172	 477	 easy	 right	 1	 2.251
tex	 1	 67	 7	 1259	 772	 easy	 right	 1	 2.251
tex	 1	 67	 8	 541	 539	 easy	 right	 1	 2.251
tex	 1	 67	 9	 463	 518	 easy	 right	 1	 2.251
tex	 1	 68	 1	 926	 525	 hard	 right	 1	 1.138
tex	 1	 68	 2	 955	 504	 hard	 right	 1	 1.138
tex	 1	 68	 3	 891	 526	 hard	 right	 1	 1.138
tex	 1	 68	 4	 626	 490	 hard	 right	 1	 1.138
tex	 1	 68	 5	 735	 260	 hard	 right	 1	 1.138
tex	 1	 68	 6	 752	 264	 hard	 right	 1	 1.138
tex	 1	 69	 1	 936	 543	 easy	 left	 1	 3.605
tex	 1	 69	 2	 796	 471	 easy	 left	 1	 3.605
tex	 1	 69	 3	 1023	 733	 easy	 left	 1	 3.605
tex	 1	 69	 4	 1119	 629	 easy	 left	 1	 3.605
tex	 1	 69	 5	 947	 516	 easy	 left	 1	 3.605
tex	 1	 69	 6	 1100	 471	 easy	 left	 1	 3.605
tex	 1	 69	 7	 1279	 303	 easy	 left	 1	 3.605
tex	 1	 69	 8	 1069	 483	 easy	 left	 1	 3.605
tex	 1	 69	 9	 1144	 447	 easy	 left	 1	 3.605
tex	 1	 69	 10	 1067	 506	 easy	 left	 1	 3.605
tex	 1	 70	 1	 948	 550	 easy	 right	 1	 0.610
tex	 1	 70	 2	 915	 528	 easy	 right	 1	 0.610
tex	 1	 70	 3	 932	 521	 easy	 right	 1	 0.610
tex	 1	 70	 4	 1343	 689	 easy	 right	 1	 0.610
tex	 1	 70	 5	 1369	 697	 easy	 right	 1	 0.610
tex	 1	 71	 1	 946	 543	 easy	 right	 1	 1.759
tex	 1	 71	 2	 823	 593	 easy	 right	 1	 1.759
tex	 1	 71	 3	 545	 712	 easy	 right	 1	 1.759
tex	 1	 71	 4	 1137	 707	 easy	 right	 1	 1.759
tex	 1	 71	 5	 760	 661	 easy	 right	 1	 1.759
tex	 1	 71	 6	 724	 549	 easy	 right	 1	 1.759
tex	 1	 72	 1	 939	 556	 easy	 left	 1	 1.583
tex	 1	 72	 2	 1030	 576	 easy	 left	 1	 1.583
tex	 1	 72	 3	 1013	 414	 easy	 left	 1	 1.583
tex	 1	 72	 4	 1171	 624	 easy	 left	 1	 1.583
tex	 1	 72	 5	 1096	 631	 easy	 left	 1	 1.583
tex	 1	 73	 1	 941	 547	 easy	 right	 1	 0.591
tex	 1	 73	 2	 1017	 786	 easy	 right	 1	 0.591
tex	 1	 73	 3	 1020	 841	 easy	 right	 1	 0.591
tex	 1	 74	 1	 938	 543	 easy	 left	 1	 1.849
tex	 1	 74	 2	 922	 674	 easy	 left	 1	 1.849
tex	 1	 74	 3	 995	 582	 easy	 left	 1	 1.849
tex	 1	 74	 4	 864	 525	 easy	 left	 1	 1.849
tex	 1	 74	 5	 1022	 762	 easy	 left	 1	 1.849
tex	 1	 74	 6	 1092	 441	 easy	 left	 1	 1.849
tex	 1	 74	 7	 532	 318	 easy	 left	 1	 1.849
tex	 1	 74	 8	 1107	 302	 easy	 left	 1	 1.849
tex	 1	 75	 1	 928	 519	 hard	 left	 1	 0.676
tex	 1	 75	 2	 946	 527	 hard	 left	 1	 0.676
tex	 1	 75	 3	 1078	 372	 hard	 left	 1	 0.676
tex	 1	 75	 4	 1077	 355	 hard	 left	 1	 0.676
tex	 1	 76	 1	 957	 528	 easy	 left	 1	 1.911
tex	 1	 76	 2	 1002	 392	 easy	 left	 1	 1.911
tex	 1	 76	 3	 688	 512	 easy	 left	 1	 1.911
tex	 1	 76	 4	 985	 584	 easy	 left	 1	 1.911
tex	 1	 76	 5	 729	 620	 easy	 left	 1	 1.911
tex	 1	 76	 6	 1113	 714	 easy	 left	 1	 1.911
tex	 1	 77	 1	 925	 530	 hard	 left	 1	 0.546
tex	 1	 77	 2	 946	 538	 hard	 left	 1	 0.546
tex	 1	 77	 3	 1029	 573	 hard	 left	 1	 0.546
tex	 1	 78	 1	 940	 550	 hard	 right	 1	 2.578
tex	 1	 78	 2	 1033	 507	 hard	 right	 1	 2.578
tex	 1	 78	 3	 596	 472	 hard	 right	 1	 2.578
tex	 1	 78	 4	 589	 525	 hard	 right	 1	 2.578
tex	 1	 78	 5	 845	 519	 hard	 right	 1	 2.578
tex	 1	 78	 6	 617	 540	 hard	 right	 1	 2.578
tex	 1	 79	 1	 951	 533	 easy	 left	 1	 0.476
tex	 1	 79	 2	 860	 539	 easy	 left	 1	 0.476
tex	 1	 79	 3	 859	 475	 easy	 left	 1	 0.476
tex	 1	 79	 4	 838	 461	 easy	 left	 1	 0.476
tex	 1	 80	 1	 949	 558	 hard	 right	 0	 0.993
tex	 1	 80	 2	 889	 521	 hard	 right	 0	 0.993
tex	 1	 80	 3	 779	 495	 hard	 right	 0	 0.993
tex	 1	 81	 1	 947	 507	 hard	 right	 1	 2.991
tex	 1	 81	 2	 797	 480	 hard	 right	 1	 2.991
tex	 1	 81	 3	 795	 399	 hard	 right	 1	 2.991
tex	 1	 81	 4	 842	 337	 hard	 right	 1	 2.991
tex	 1	 81	 5	 646	 299	 hard	 right	 1	 2.991
tex	 1	 81	 6	 763	 482	 hard	 right	 1	 2.991
tex	 1	 81	 7	 631	 487	 hard	 right	 1	 2.991
tex	 1	 81	 8	 1101	 502	 hard	 right	 1	 2.991
tex	 1	 81	 9	 1046	 509	 hard	 right	 1	 2.991
tex	 1	 81	 10	 886	 572	 hard	 right	 1	 2.991
tex	 1	 81	 11	 737	 870	 hard	 right	 1	 2.991
tex	 1	 82	 1	 941	 535	 easy	 right	 1	 0.604
tex	 1	 82	 2	 970	 464	 easy	 right	 1	 0.604
tex	 1	 82	 3	 1114	 270	 easy	 right	 1	 0.604
tex	 1	 82	 4	 1156	 242	 easy	 right	 1	 0.604
tex	 1	 83	 1	 954	 534	 easy	 right	 1	 2.153
tex	 1	 83	 2	 998	 387	 easy	 right	 1	 2.153
tex	 1	 83	 3	 1081	 330	 easy	 right	 1	 2.153
tex	 1	 83	 4	 735	 390	 easy	 right	 1	 2.153
tex	 1	 83	 5	 647	 297	 easy	 right	 1	 2.153
tex	 1	 83	 6	 738	 624	 easy	 right	 1	 2.153
tex	 1	 83	 7	 597	 683	 easy	 right	 1	 2.153
tex	 1	 83	 8	 848	 821	 easy	 right	 1	 2.153
tex	 1	 83	 9	 797	 827	 easy	 right	 1	 2.153
tex	 1	 83	 10	 816	 730	 easy	 right	 1	 2.153
tex	 1	 84	 1	 943	 509	 easy	 left	 1	 0.639
tex	 1	 84	 2	 871	 485	 easy	 left	 1	 0.639
tex	 1	 84	 3	 561	 694	 easy	 left	 1	 0.639
tex	 1	 84	 4	 542	 684	 easy	 left	 1	 0.639
tex	 1	 85	 1	 943	 557	 easy	 left	 1	 0.554
tex	 1	 85	 2	 941	 512	 easy	 left	 1	 0.554
tex	 1	 85	 3	 745	 269	 easy	 left	 1	 0.554
tex	 1	 86	 1	 939	 554	 hard	 left	 1	 1.542
tex	 1	 86	 2	 950	 524	 hard	 left	 1	 1.542
tex	 1	 86	 3	 804	 496	 hard	 left	 1	 1.542
tex	 1	 86	 4	 1220	 788	 hard	 left	 1	 1.542
tex	 1	 86	 5	 542	 804	 hard	 left	 1	 1.542
tex	 1	 86	 6	 1282	 369	 hard	 left	 1	 1.542
tex	 1	 86	 7	 1075	 330	 hard	 left	 1	 1.542
tex	 1	 86	 8	 1370	 380	 hard	 left	 1	 1.542
tex	 1	 87	 1	 948	 523	 hard	 right	 1	 2.334
tex	 1	 87	 2	 958	 482	 hard	 right	 1	 2.334
tex	 1	 87	 3	 544	 483	 hard	 right	 1	 2.334
tex	 1	 87	 4	 701	 647	 hard	 right	 1	 2.334
tex	 1	 87	 5	 564	 658	 hard	 right	 1	 2.334
tex	 1	 87	 6	 458	 874	 hard	 right	 1	 2.334
tex	 1	 87	 7	 1224	 470	 hard	 right	 1	 2.334
tex	 1	 87	 8	 1334	 302	 hard	 right	 1	 2.334
tex	 1	 87	 9	 844	 243	 hard	 right	 1	 2.334
tex	 1	 88	 1	 944	 535	 easy	 right	 1	 0.589
tex	 1	 88	 2	 1228	 554	 easy	 right	 1	 0.589
tex	 1	 88	 3	 1196	 547	 easy	 right	 1	 0.589
tex	 1	 89	 1	 954	 543	 hard	 right	 1	 0.763
tex	 1	 89	 2	 855	 470	 hard	 right	 1	 0.763
tex	 1	 89	 3	 797	 341	 hard	 right	 1	 0.763
tex	 1	 89	 4	 752	 337	 hard	 right	 1	 0.763
tex	 1	 90	 1	 948	 526	 hard	 left	 0	 1.657
tex	 1	 90	 2	 784	 466	 hard	 left	 0	 1.657
tex	 1	 90	 3	 1098	 558	 hard	 left	 0	 1.657
tex	 1	 90	 4	 1368	 604	 hard	 left	 0	 1.657
tex	 1	 90	 5	 1007	 669	 hard	 left	 0	 1.657
tex	 1	 90	 6	 1126	 686	 hard	 left	 0	 1.657
tex	 1	 91	 1	 947	 521	 easy	 left	 1	 0.565
tex	 1	 91	 2	 895	 515	 easy	 left	 1	 0.565
tex	 1	 91	 3	 523	 665	 easy	 left	 1	 0.565
tex	 1	 92	 1	 949	 543	 easy	 right	 1	 4.215
tex	 1	 92	 2	 631	 588	 easy	 right	 1	 4.215
tex	 1	 92	 3	 875	 656	 easy	 right	 1	 4.215
tex	 1	 92	 4	 1151	 507	 easy	 right	 1	 4.215
tex	 1	 92	 5	 913	 467	 easy	 right	 1	 4.215
tex	 1	 92	 6	 1027	 699	 easy	 right	 1	 4.215
tex	 1	 92	 7	 871	 586	 easy	 right	 1	 4.215
tex	 1	 92	 8	 1227	 753	 easy	 right	 1	 4.215
tex	 1	 92	 9	 827	 616	 easy	 right	 1	 4.215
tex	 1	 92	 10	 757	 530	 easy	 right	 1	 4.215
tex	 1	 92	 11	 778	 512	 easy	 right	 1	 4.215
tex	 1	 92	 12	 1104	 608	 easy	 right	 1	 4.215
tex	 1	 92	 13	 1292	 856	 easy	 right	 1	 4.215
tex	 1	 92	 14	 1214	 844	 easy	 right	 1	 4.215
tex	 1	 92	 15	 709	 866	 easy	 right	 1	 4.215
tex	 1	 92	 16	 465	 882	 easy	 right	 1	 4.215
tex	 1	 92	 17	 474	 327	 easy	 right	 1	 4.215
tex	 1	 93	 1	 948	 527	 hard	 left	 1	 1.218
tex	 1	 93	 2	 975	 453	 hard	 left	 1	 1.218
tex	 1	 93	 3	 1111	 879	 hard	 left	 1	 1.218
tex	 1	 93	 4	 1144	 866	 hard	 left	 1	 1.218
tex	 1	 93	 5	 1119	 849	 hard	 left	 1	 1.218
tex	 1	 93	 6	 1134	 857	 hard	 left	 1	 1.218
tex	 1	 94	 1	 947	 546	 hard	 left	 1	 2.185
tex	 1	 94	 2	 1011	 659	 hard	 left	 1	 2.185
tex	 1	 94	 3	 643	 610	 hard	 left	 1	 2.185
tex	 1	 94	 4	 972	 809	 hard	 left	 1	 2.185
tex	 1	 94	 5	 1045	 366	 hard	 left	 1	 2.185
tex	 1	 94	 6	 962	 302	 hard	 left	 1	 2.185
tex	 1	 94	 7	 1303	 268	 hard	 left	 1	 2.185
tex	 1	 94	 8	 1056	 517	 hard	 left	 1	 2.185
tex	 1	 95	 1	 941	 540	 easy	 left	 1	 0.848
tex	 1	 95	 2	 582	 535	 easy	 left	 1	 0.848
tex	 1	 95	 3	 1287	 561	 easy	 left	 1	 0.848
tex	 1	 95	 4	 1311	 561	 easy	 left	 1	 0.848
tex	 1	 95	 5	 466	 515	 easy	 left	 1	 0.848
tex	 1	 96	 1	 951	 532	 hard	 left	 0	 3.302
tex	 1	 96	 2	 817	 527	 hard	 left	 0	 3.302
tex	 1	 96	 3	 963	 600	 hard	 left	 0	 3.302
tex	 1	 96	 4	 819	 429	 hard	 left	 0	 3.302
tex	 1	 96	 5	 458	 460	 hard	 left	 0	 3.302
tex	 1	 96	 6	 1065	 667	 hard	 left	 0	 3.302
tex	 1	 96	 7	 1123	 532	 hard	 left	 0	 3.302
tex	 1	 96	 8	 998	 529	 hard	 left	 0	 3.302
tex	 1	 96	 9	 1318	 462	 hard	 left	 0	 3.302
tex	 1	 96	 10	 1017	 371	 hard	 left	 0	 3.302
tex	 1	 96	 11	 1005	 630	 hard	 left	 0	 3.302
tex	 2	 1	 1	 962	 553	 easy	 left	 0	 5.001
tex	 2	 1	 2	 1092	 467	 easy	 left	 0	 5.001
tex	 2	 1	 3	 1216	 503	 easy	 left	 0	 5.001
tex	 2	 1	 4	 747	 543	 easy	 left	 0	 5.001
tex	 2	 1	 5	 550	 426	 easy	 left	 0	 5.001
tex	 2	 1	 6	 741	 748	 easy	 left	 0	 5.001
tex	 2	 1	 7	 872	 794	 easy	 left	 0	 5.001
tex	 2	 1	 8	 886	 865	 easy	 left	 0	 5.001
tex	 2	 1	 9	 999	 899	 easy	 left	 0	 5.001
tex	 2	 1	 10	 1397	 903	 easy	 left	 0	 5.001
tex	 2	 1	 11	 959	 802	 easy	 left	 0	 5.001
tex	 2	 1	 12	 1007	 667	 easy	 left	 0	 5.001
tex	 2	 1	 13	 990	 575	 easy	 left	 0	 5.001
tex	 2	 1	 14	 811	 515	 easy	 left	 0	 5.001
tex	 2	 1	 15	 1073	 524	 easy	 left	 0	 5.001
tex	 2	 1	 16	 972	 452	 easy	 left	 0	 5.001
tex	 2	 1	 17	 613	 441	 easy	 left	 0	 5.001
tex	 2	 2	 1	 955	 537	 easy	 left	 0	 5.001
tex	 2	 2	 2	 1064	 532	 easy	 left	 0	 5.001
tex	 2	 2	 3	 1228	 713	 easy	 left	 0	 5.001
tex	 2	 2	 4	 1382	 815	 easy	 left	 0	 5.001
tex	 2	 2	 5	 800	 734	 easy	 left	 0	 5.001
tex	 2	 2	 6	 635	 731	 easy	 left	 0	 5.001
tex	 2	 2	 7	 599	 446	 easy	 left	 0	 5.001
tex	 2	 2	 8	 644	 194	 easy	 left	 0	 5.001
tex	 2	 2	 9	 881	 263	 easy	 left	 0	 5.001
tex	 2	 2	 10	 1044	 305	 easy	 left	 0	 5.001
tex	 2	 2	 11	 1017	 384	 easy	 left	 0	 5.001
tex	 2	 2	 12	 1232	 415	 easy	 left	 0	 5.001
tex	 2	 2	 13	 1368	 785	 easy	 left	 0	 5.001
tex	 2	 2	 14	 1298	 900	 easy	 left	 0	 5.001
tex	 2	 2	 15	 1104	 886	 easy	 left	 0	 5.001
tex	 2	 3	 1	 970	 553	 easy	 left	 0	 5.001
tex	 2	 3	 2	 1109	 579	 easy	 left	 0	 5.001
tex	 2	 3	 3	 1249	 578	 easy	 left	 0	 5.001
tex	 2	 3	 4	 941	 695	 easy	 left	 0	 5.001
tex	 2	 3	 5	 600	 803	 easy	 left	 0	 5.001
tex	 2	 3	 6	 598	 637	 easy	 left	 0	 5.001
tex	 2	 3	 7	 835	 953	 easy	 left	 0	 5.001
tex	 2	 3	 8	 878	 927	 easy	 left	 0	 5.001
tex	 2	 3	 9	 1161	 908	 easy	 left	 0	 5.001
tex	 2	 3	 10	 1296	 873	 easy	 left	 0	 5.001
tex	 2	 3	 11	 1227	 349	 easy	 left	 0	 5.001
tex	 2	 3	 12	 1075	 370	 easy	 left	 0	 5.001
tex	 2	 3	 13	 1244	 421	 easy	 left	 0	 5.001
tex	 2	 3	 14	 1288	 434	 easy	 left	 0	 5.001
tex	 2	 3	 15	 1436	 421	 easy	 left	 0	 5.001
tex	 2	 3	 16	 1252	 542	 easy	 left	 0	 5.001
tex	 2	 3	 17	 1270	 596	 easy	 left	 0	 5.001
tex	 2	 3	 18	 1077	 311	 easy	 left	 0	 5.001
tex	 2	 3	 19	 1028	 262	 easy	 left	 0	 5.001
tex	 2	 3	 20	 1093	 421	 easy	 left	 0	 5.001
tex	 2	 4	 1	 974	 545	 easy	 left	 0	 5.001
tex	 2	 4	 2	 947	 512	 easy	 left	 0	 5.001
tex	 2	 4	 3	 1069	 504	 easy	 left	 0	 5.001
tex	 2	 4	 4	 903	 438	 easy	 left	 0	 5.001
tex	 2	 4	 5	 612	 362	 easy	 left	 0	 5.001
tex	 2	 4	 6	 1157	 416	 easy	 left	 0	 5.001
tex	 2	 4	 7	 1099	 416	 easy	 left	 0	 5.001
tex	 2	 4	 8	 1115	 468	 easy	 left	 0	 5.001
tex	 2	 4	 9	 1076	 583	 easy	 left	 0	 5.001
tex	 2	 4	 10	 1083	 409	 easy	 left	 0	 5.001
tex	 2	 4	 11	 606	 269	 easy	 left	 0	 5.001
tex	 2	 4	 12	 834	 323	 easy	 left	 0	 5.001
tex	 2	 4	 13	 756	 858	 easy	 left	 0	 5.001
tex	 2	 4	 14	 1148	 891	 easy	 left	 0	 5.001
tex	 2	 4	 15	 1416	 885	 easy	 left	 0	 5.001
tex	 2	 4	 16	 1259	 844	 easy	 left	 0	 5.001
tex	 2	 4	 17	 1029	 790	 easy	 left	 0	 5.001
tex	 2	 4	 18	 746	 549	 easy	 left	 0	 5.001
tex	 2	 5	 1	 973	 537	 easy	 left	 0	 5.002
tex	 2	 5	 2	 940	 528	 easy	 left	 0	 5.002
tex	 2	 5	 3	 1073	 625	 easy	 left	 0	 5.002
tex	 2	 5	 4	 1286	 748	 easy	 left	 0	 5.002
tex	 2	 5	 5	 596	 293	 easy	 left	 0	 5.002
tex	 2	 5	 6	 480	 219	 easy	 left	 0	 5.002
tex	 2	 5	 7	 437	 165	 easy	 left	 0	 5.002
tex	 2	 5	 8	 468	 187	 easy	 left	 0	 5.002
tex	 2	 5	 9	 1097	 307	 easy	 left	 0	 5.002
tex	 2	 5	 10	 1183	 488	 easy	 left	 0	 5.002
tex	 2	 5	 11	 1219	 767	 easy	 left	 0	 5.002
tex	 2	 5	 12	 1152	 822	 easy	 left	 0	 5.002
tex	 2	 5	 13	 1057	 797	 easy	 left	 0	 5.002
tex	 2	 5	 14	 1213	 749	 easy	 left	 0	 5.002
tex	 2	 5	 15	 1151	 752	 easy	 left	 0	 5.002
tex	 2	 5	 16	 1119	 771	 easy	 left	 0	 5.002
tex	 2	 5	 17	 1156	 759	 easy	 left	 0	 5.002
tex	 2	 5	 18	 1065	 781	 easy	 left	 0	 5.002
tex	 2	 6	 1	 968	 547	 easy	 left	 0	 5.001
tex	 2	 6	 2	 1057	 542	 easy	 left	 0	 5.001
tex	 2	 6	 3	 984	 494	 easy	 left	 0	 5.001
tex	 2	 6	 4	 1267	 532	 easy	 left	 0	 5.001
tex	 2	 6	 5	 1273	 502	 easy	 left	 0	 5.001
tex	 2	 6	 6	 1298	 489	 easy	 left	 0	 5.001
tex	 2	 6	 7	 1191	 462	 easy	 left	 0	 5.001
tex	 2	 6	 8	 1145	 478	 easy	 left	 0	 5.001
tex	 2	 6	 9	 579	 338	 easy	 left	 0	 5.001
tex	 2	 6	 10	 660	 246	 easy	 left	 0	 5.001
tex	 2	 6	 11	 593	 240	 easy	 left	 0	 5.001
tex	 2	 7	 1	 963	 555	 easy	 left	 0	 5.001
tex	 2	 7	 2	 979	 547	 easy	 left	 0	 5.001
tex	 2	 7	 3	 712	 565	 easy	 left	 0	 5.001
tex	 2	 7	 4	 573	 619	 easy	 left	 0	 5.001
tex	 2	 7	 5	 1070	 603	 easy	 left	 0	 5.001
tex	 2	 7	 6	 1190	 599	 easy	 left	 0	 5.001
tex	 2	 7	 7	 1161	 528	 easy	 left	 0	 5.001
tex	 2	 7	 8	 1091	 508	 easy	 left	 0	 5.001
tex	 2	 7	 9	 1224	 433	 easy	 left	 0	 5.001
tex	 2	 7	 10	 1109	 419	 easy	 left	 0	 5.001
tex	 2	 7	 11	 1163	 720	 easy	 left	 0	 5.001
tex	 2	 7	 12	 1031	 652	 easy	 left	 0	 5.001
tex	 2	 8	 1	 951	 560	 easy	 left	 0	 5.001
tex	 2	 8	 2	 1047	 575	 easy	 left	 0	 5.001
tex	 2	 8	 3	 1282	 694	 easy	 left	 0	 5.001
tex	 2	 8	 4	 1060	 662	 easy	 left	 0	 5.001
tex	 2	 8	 5	 997	 620	 easy	 left	 0	 5.001
tex	 2	 8	 6	 1279	 724	 easy	 left	 0	 5.001
tex	 2	 8	 7	 870	 419	 easy	 left	 0	 5.001
tex	 2	 8	 8	 1020	 493	 easy	 left	 0	 5.001
tex	 2	 8	 9	 1223	 547	 easy	 left	 0	 5.001
tex	 2	 8	 10	 1245	 386	 easy	 left	 0	 5.001
tex	 2	 8	 11	 1269	 341	 easy	 left	 0	 5.001
tex	 2	 8	 12	 605	 309	 easy	 left	 0	 5.001
tex	 2	 8	 13	 579	 687	 easy	 left	 0	 5.001
tex	 2	 8	 14	 975	 821	 easy	 left	 0	 5.001
tex	 2	 8	 15	 1358	 853	 easy	 left	 0	 5.001
tex	 2	 8	 16	 1395	 809	 easy	 left	 0	 5.001
tex	 2	 8	 17	 1298	 894	 easy	 left	 0	 5.001
tex	 2	 9	 1	 966	 546	 easy	 left	 0	 5.001
tex	 2	 9	 2	 1043	 553	 easy	 left	 0	 5.001
tex	 2	 9	 3	 1245	 664	 easy	 left	 0	 5.001
tex	 2	 9	 4	 1043	 394	 easy	 left	 0	 5.001
tex	 2	 9	 5	 1177	 663	 easy	 left	 0	 5.001
tex	 2	 9	 6	 1182	 484	 easy	 left	 0	 5.001
tex	 2	 9	 7	 1118	 433	 easy	 left	 0	 5.001
tex	 2	 9	 8	 1082	 543	 easy	 left	 0	 5.001
tex	 2	 9	 9	 1179	 482	 easy	 left	 0	 5.001
tex	 2	 9	 10	 1106	 594	 easy	 left	 0	 5.001
tex	 2	 9	 11	 1224	 664	 easy	 left	 0	 5.001
tex	 2	 9	 12	 1058	 694	 easy	 left	 0	 5.001
tex	 2	 10	 1	 962	 565	 easy	 left	 0	 5.001
tex	 2	 10	 2	 1013	 558	 easy	 left	 0	 5.001
tex	 2	 10	 3	 786	 424	 easy	 left	 0	 5.001
tex	 2	 10	 4	 800	 375	 easy	 left	 0	 5.001
tex	 2	 10	 5	 477	 380	 easy	 left	 0	 5.001
tex	 2	 10	 6	 814	 351	 easy	 left	 0	 5.001
tex	 2	 10	 7	 549	 217	 easy	 left	 0	 5.001
tex	 2	 10	 8	 1118	 415	 easy	 left	 0	 5.001
tex	 2	 10	 9	 1293	 532	 easy	 left	 0	 5.001
tex	 2	 10	 10	 1193	 634	 easy	 left	 0	 5.001
tex	 2	 10	 11	 1057	 750	 easy	 left	 0	 5.001
tex	 2	 10	 12	 1218	 765	 easy	 left	 0	 5.001
tex	 2	 10	 13	 1089	 804	 easy	 left	 0	 5.001
tex	 2	 10	 14	 920	 812	 easy	 left	 0	 5.001
tex	 2	 10	 15	 657	 836	 easy	 left	 0	 5.001
tex	 2	 10	 16	 1043	 652	 easy	 left	 0	 5.001
tex	 2	 10	 17	 1003	 677	 easy	 left	 0	 5.001
tex	 2	 11	 1	 956	 568	 undef	 left	 1	 1.885
tex	 2	 11	 2	 1039	 509	 undef	 left	 1	 1.885
tex	 2	 11	 3	 1005	 438	 undef	 left	 1	 1.885
tex	 2	 11	 4	 1204	 638	 undef	 left	 1	 1.885
tex	 2	 11	 5	 1151	 722	 undef	 left	 1	 1.885
tex	 2	 11	 6	 1178	 750	 undef	 left	 1	 1.885
tex	 2	 12	 1	 977	 583	 undef	 left	 1	 0.843
tex	 2	 12	 2	 1057	 714	 undef	 left	 1	 0.843
tex	 2	 12	 3	 1311	 831	 undef	 left	 1	 0.843
tex	 2	 12	 4	 1365	 836	 undef	 left	 1	 0.843
tex	 2	 13	 1	 957	 588	 undef	 left	 1	 2.081
tex	 2	 13	 2	 827	 543	 undef	 left	 1	 2.081
tex	 2	 13	 3	 704	 481	 undef	 left	 1	 2.081
tex	 2	 13	 4	 647	 701	 undef	 left	 1	 2.081
tex	 2	 13	 5	 563	 763	 undef	 left	 1	 2.081
tex	 2	 13	 6	 1242	 761	 undef	 left	 1	 2.081
tex	 2	 13	 7	 1225	 313	 undef	 left	 1	 2.081
tex	 2	 13	 8	 1232	 437	 undef	 left	 1	 2.081
tex	 2	 14	 1	 958	 575	 undef	 left	 1	 3.397
tex	 2	 14	 2	 1395	 811	 undef	 left	 1	 3.397
tex	 2	 14	 3	 1320	 815	 undef	 left	 1	 3.397
tex	 2	 14	 4	 1314	 776	 undef	 left	 1	 3.397
tex	 2	 14	 5	 608	 411	 undef	 left	 1	 3.397
tex	 2	 14	 6	 496	 276	 undef	 left	 1	 3.397
tex	 2	 14	 7	 467	 208	 undef	 left	 1	 3.397
tex	 2	 14	 8	 926	 636	 undef	 left	 1	 3.397
tex	 2	 14	 9	 727	 726	 undef	 left	 1	 3.397
tex	 2	 14	 10	 861	 659	 undef	 left	 1	 3.397
tex	 2	 14	 11	 1291	 848	 undef	 left	 1	 3.397
tex	 2	 14	 12	 1182	 834	 undef	 left	 1	 3.397
tex	 2	 14	 13	 1214	 888	 undef	 left	 1	 3.397
tex	 2	 14	 14	 1186	 734	 undef	 left	 1	 3.397
tex	 2	 14	 15	 1180	 437	 undef	 left	 1	 3.397
tex	 2	 14	 16	 1125	 416	 undef	 left	 1	 3.397
tex	 2	 15	 1	 965	 581	 undef	 left	 0	 3.239
tex	 2	 15	 2	 1130	 709	 undef	 left	 0	 3.239
tex	 2	 15	 3	 853	 683	 undef	 left	 0	 3.239
tex	 2	 15	 4	 602	 387	 undef	 left	 0	 3.239
tex	 2	 15	 5	 745	 516	 undef	 left	 0	 3.239
tex	 2	 15	 6	 774	 467	 undef	 left	 0	 3.239
tex	 2	 15	 7	 791	 452	 undef	 left	 0	 3.239
tex	 2	 15	 8	 654	 742	 undef	 left	 0	 3.239
tex	 2	 15	 9	 613	 749	 undef	 left	 0	 3.239
tex	 2	 15	 10	 1205	 771	 undef	 left	 0	 3.239
tex	 2	 15	 11	 1045	 822	 undef	 left	 0	 3.239
tex	 2	 15	 12	 1222	 487	 undef	 left	 0	 3.239
tex	 2	 15	 13	 1161	 477	 undef	 left	 0	 3.239
tex	 2	 16	 1	 998	 540	 undef	 left	 0	 0.728
tex	 2	 16	 2	 965	 551	 undef	 left	 0	 0.728
tex	 2	 16	 3	 865	 471	 undef	 left	 0	 0.728
tex	 2	 17	 1	 960	 555	 hard	 right	 1	 1.181
tex	 2	 17	 2	 860	 510	 hard	 right	 1	 1.181
tex	 2	 17	 3	 903	 605	 hard	 right	 1	 1.181
tex	 2	 17	 4	 622	 461	 hard	 right	 1	 1.181
tex	 2	 18	 1	 934	 542	 hard	 right	 1	 1.884
tex	 2	 18	 2	 812	 542	 hard	 right	 1	 1.884
tex	 2	 18	 3	 876	 657	 hard	 right	 1	 1.884
tex	 2	 18	 4	 571	 631	 hard	 right	 1	 1.884
tex	 2	 18	 5	 768	 740	 hard	 right	 1	 1.884
tex	 2	 18	 6	 767	 751	 hard	 right	 1	 1.884
tex	 2	 19	 1	 965	 543	 easy	 right	 1	 1.117
tex	 2	 19	 2	 909	 566	 easy	 right	 1	 1.117
tex	 2	 19	 3	 993	 511	 easy	 right	 1	 1.117
tex	 2	 19	 4	 1212	 353	 easy	 right	 1	 1.117
tex	 2	 19	 5	 1233	 348	 easy	 right	 1	 1.117
tex	 2	 20	 1	 959	 569	 hard	 right	 0	 1.611
tex	 2	 20	 2	 914	 570	 hard	 right	 0	 1.611
tex	 2	 20	 3	 817	 635	 hard	 right	 0	 1.611
tex	 2	 20	 4	 1105	 789	 hard	 right	 0	 1.611
tex	 2	 20	 5	 666	 355	 hard	 right	 0	 1.611
tex	 2	 20	 6	 773	 382	 hard	 right	 0	 1.611
tex	 2	 20	 7	 642	 494	 hard	 right	 0	 1.611
tex	 2	 21	 1	 955	 567	 hard	 right	 1	 1.081
tex	 2	 21	 2	 871	 619	 hard	 right	 1	 1.081
tex	 2	 21	 3	 992	 693	 hard	 right	 1	 1.081
tex	 2	 21	 4	 522	 713	 hard	 right	 1	 1.081
tex	 2	 22	 1	 962	 558	 easy	 left	 1	 1.014
tex	 2	 22	 2	 900	 619	 easy	 left	 1	 1.014
tex	 2	 23	 1	 977	 561	 hard	 left	 1	 3.737
tex	 2	 23	 2	 948	 565	 hard	 left	 1	 3.737
tex	 2	 23	 3	 859	 554	 hard	 left	 1	 3.737
tex	 2	 23	 4	 1229	 538	 hard	 left	 1	 3.737
tex	 2	 23	 5	 1032	 611	 hard	 left	 1	 3.737
tex	 2	 23	 6	 1037	 494	 hard	 left	 1	 3.737
tex	 2	 23	 7	 1024	 394	 hard	 left	 1	 3.737
tex	 2	 23	 8	 639	 800	 hard	 left	 1	 3.737
tex	 2	 23	 9	 578	 687	 hard	 left	 1	 3.737
tex	 2	 23	 10	 529	 509	 hard	 left	 1	 3.737
tex	 2	 23	 11	 781	 471	 hard	 left	 1	 3.737
tex	 2	 23	 12	 1133	 628	 hard	 left	 1	 3.737
tex	 2	 23	 13	 1317	 737	 hard	 left	 1	 3.737
tex	 2	 23	 14	 1012	 725	 hard	 left	 1	 3.737
tex	 2	 23	 15	 752	 660	 hard	 left	 1	 3.737
tex	 2	 24	 1	 971	 559	 easy	 left	 1	 1.122
tex	 2	 24	 2	 722	 470	 easy	 left	 1	 1.122
tex	 2	 24	 3	 565	 380	 easy	 left	 1	 1.122
tex	 2	 24	 4	 574	 392	 easy	 left	 1	 1.122
tex	 2	 25	 1	 959	 547	 easy	 right	 1	 3.101
tex	 2	 25	 2	 784	 517	 easy	 right	 1	 3.101
tex	 2	 25	 3	 912	 682	 easy	 right	 1	 3.101
tex	 2	 25	 4	 938	 643	 easy	 right	 1	 3.101
tex	 2	 25	 5	 770	 743	 easy	 right	 1	 3.101
tex	 2	 25	 6	 593	 607	 easy	 right	 1	 3.101
tex	 2	 25	 7	 641	 359	 easy	 right	 1	 3.101
tex	 2	 25	 8	 528	 556	 easy	 right	 1	 3.101
tex	 2	 25	 9	 510	 667	 easy	 right	 1	 3.101
tex	 2	 25	 10	 522	 634	 easy	 right	 1	 3.101
tex	 2	 25	 11	 1175	 736	 easy	 right	 1	 3.101
tex	 2	 25	 12	 1270	 617	 easy	 right	 1	 3.101
tex	 2	 25	 13	 1083	 750	 easy	 right	 1	 3.101
tex	 2	 26	 1	 939	 560	 hard	 left	 1	 0.744
tex	 2	 26	 2	 799	 536	 hard	 left	 1	 0.744
tex	 2	 26	 3	 1035	 578	 hard	 left	 1	 0.744
tex	 2	 26	 4	 1055	 586	 hard	 left	 1	 0.744
tex	 2	 27	 1	 963	 570	 easy	 right	 1	 3.305
tex	 2	 27	 2	 979	 562	 easy	 right	 1	 3.305
tex	 2	 27	 3	 891	 613	 easy	 right	 1	 3.305
tex	 2	 27	 4	 562	 521	 easy	 right	 1	 3.305
tex	 2	 27	 5	 900	 839	 easy	 right	 1	 3.305
tex	 2	 27	 6	 647	 697	 easy	 right	 1	 3.305
tex	 2	 27	 7	 626	 598	 easy	 right	 1	 3.305
tex	 2	 27	 8	 924	 601	 easy	 right	 1	 3.305
tex	 2	 27	 9	 712	 591	 easy	 right	 1	 3.305
tex	 2	 27	 10	 605	 349	 easy	 right	 1	 3.305
tex	 2	 27	 11	 805	 390	 easy	 right	 1	 3.305
tex	 2	 27	 12	 638	 447	 easy	 right	 1	 3.305
tex	 2	 27	 13	 869	 473	 easy	 right	 1	 3.305
tex	 2	 28	 1	 890	 555	 hard	 left	 1	 2.828
tex	 2	 28	 2	 994	 530	 hard	 left	 1	 2.828
tex	 2	 28	 3	 1034	 529	 hard	 left	 1	 2.828
tex	 2	 28	 4	 936	 648	 hard	 left	 1	 2.828
tex	 2	 28	 5	 868	 677	 hard	 left	 1	 2.828
tex	 2	 28	 6	 623	 634	 hard	 left	 1	 2.828
tex	 2	 28	 7	 834	 812	 hard	 left	 1	 2.828
tex	 2	 28	 8	 1147	 811	 hard	 left	 1	 2.828
tex	 2	 28	 9	 1168	 458	 hard	 left	 1	 2.828
tex	 2	 28	 10	 1035	 357	 hard	 left	 1	 2.828
tex	 2	 28	 11	 1359	 467	 hard	 left	 1	 2.828
tex	 2	 28	 12	 1391	 497	 hard	 left	 1	 2.828
tex	 2	 29	 1	 959	 550	 hard	 left	 1	 3.923
tex	 2	 29	 2	 965	 563	 hard	 left	 1	 3.923
tex	 2	 29	 3	 1414	 897	 hard	 left	 1	 3.923
tex	 2	 29	 4	 547	 748	 hard	 left	 1	 3.923
tex	 2	 29	 5	 485	 674	 hard	 left	 1	 3.923
tex	 2	 29	 6	 456	 642	 hard	 left	 1	 3.923
tex	 2	 29	 7	 470	 947	 hard	 left	 1	 3.923
tex	 2	 29	 8	 464	 891	 hard	 left	 1	 3.923
tex	 2	 29	 9	 1030	 387	 hard	 left	 1	 3.923
tex	 2	 29	 10	 1296	 418	 hard	 left	 1	 3.923
tex	 2	 29	 11	 1020	 483	 hard	 left	 1	 3.923
tex	 2	 29	 12	 1059	 482	 hard	 left	 1	 3.923
tex	 2	 29	 13	 609	 513	 hard	 left	 1	 3.923
tex	 2	 29	 14	 569	 551	 hard	 left	 1	 3.923
tex	 2	 29	 15	 816	 479	 hard	 left	 1	 3.923
tex	 2	 30	 1	 964	 543	 easy	 right	 1	 0.591
tex	 2	 30	 2	 772	 493	 easy	 right	 1	 0.591
tex	 2	 30	 3	 1074	 600	 easy	 right	 1	 0.591
tex	 2	 30	 4	 1028	 591	 easy	 right	 1	 0.591
tex	 2	 31	 1	 961	 557	 easy	 left	 1	 2.015
tex	 2	 31	 2	 987	 566	 easy	 left	 1	 2.015
tex	 2	 31	 3	 758	 508	 easy	 left	 1	 2.015
tex	 2	 31	 4	 581	 516	 easy	 left	 1	 2.015
tex	 2	 31	 5	 1270	 658	 easy	 left	 1	 2.015
tex	 2	 31	 6	 1039	 734	 easy	 left	 1	 2.015
tex	 2	 31	 7	 949	 601	 easy	 left	 1	 2.015
tex	 2	 31	 8	 1290	 904	 easy	 left	 1	 2.015
tex	 2	 31	 9	 1031	 632	 easy	 left	 1	 2.015
tex	 2	 31	 10	 1004	 398	 easy	 left	 1	 2.015
tex	 2	 32	 1	 965	 563	 hard	 right	 1	 3.945
tex	 2	 32	 2	 867	 598	 hard	 right	 1	 3.945
tex	 2	 32	 3	 777	 365	 hard	 right	 1	 3.945
tex	 2	 32	 4	 933	 605	 hard	 right	 1	 3.945
tex	 2	 32	 5	 630	 628	 hard	 right	 1	 3.945
tex	 2	 32	 6	 891	 649	 hard	 right	 1	 3.945
tex	 2	 32	 7	 1097	 649	 hard	 right	 1	 3.945
tex	 2	 32	 8	 1172	 788	 hard	 right	 1	 3.945
tex	 2	 32	 9	 1079	 929	 hard	 right	 1	 3.945
tex	 2	 32	 10	 795	 892	 hard	 right	 1	 3.945
tex	 2	 32	 11	 669	 466	 hard	 right	 1	 3.945
tex	 2	 32	 12	 906	 599	 hard	 right	 1	 3.945
tex	 2	 32	 13	 875	 614	 hard	 right	 1	 3.945
tex	 2	 33	 1	 975	 566	 hard	 left	 1	 3.673
tex	 2	 33	 2	 944	 556	 hard	 left	 1	 3.673
tex	 2	 33	 3	 608	 548	 hard	 left	 1	 3.673
tex	 2	 33	 4	 1017	 440	 hard	 left	 1	 3.673
tex	 2	 33	 5	 1236	 523	 hard	 left	 1	 3.673
tex	 2	 33	 6	 1055	 699	 hard	 left	 1	 3.673
tex	 2	 33	 7	 1342	 874	 hard	 left	 1	 3.673
tex	 2	 33	 8	 1164	 895	 hard	 left	 1	 3.673
tex	 2	 33	 9	 1300	 625	 hard	 left	 1	 3.673
tex	 2	 33	 10	 1073	 651	 hard	 left	 1	 3.673
tex	 2	 33	 11	 946	 686	 hard	 left	 1	 3.673
tex	 2	 34	 1	 980	 581	 hard	 right	 1	 2.579
tex	 2	 34	 2	 939	 572	 hard	 right	 1	 2.579
tex	 2	 34	 3	 1390	 801	 hard	 right	 1	 2.579
tex	 2	 34	 4	 645	 617	 hard	 right	 1	 2.579
tex	 2	 34	 5	 577	 496	 hard	 right	 1	 2.579
tex	 2	 34	 6	 607	 460	 hard	 right	 1	 2.579
tex	 2	 34	 7	 524	 566	 hard	 right	 1	 2.579
tex	 2	 34	 8	 789	 303	 hard	 right	 1	 2.579
tex	 2	 34	 9	 757	 408	 hard	 right	 1	 2.579
tex	 2	 34	 10	 518	 273	 hard	 right	 1	 2.579
tex	 2	 35	 1	 986	 548	 hard	 right	 1	 2.702
tex	 2	 35	 2	 923	 538	 hard	 right	 1	 2.702
tex	 2	 35	 3	 849	 503	 hard	 right	 1	 2.702
tex	 2	 35	 4	 679	 611	 hard	 right	 1	 2.702
tex	 2	 35	 5	 986	 693	 hard	 right	 1	 2.702
tex	 2	 35	 6	 872	 654	 hard	 right	 1	 2.702
tex	 2	 35	 7	 651	 406	 hard	 right	 1	 2.702
tex	 2	 35	 8	 576	 582	 hard	 right	 1	 2.702
tex	 2	 35	 9	 1029	 468	 hard	 right	 1	 2.702
tex	 2	 35	 10	 937	 450	 hard	 right	 1	 2.702
tex	 2	 36	 1	 956	 543	 hard	 right	 1	 3.834
tex	 2	 36	 2	 903	 566	 hard	 right	 1	 3.834
tex	 2	 36	 3	 861	 523	 hard	 right	 1	 3.834
tex	 2	 36	 4	 612	 557	 hard	 right	 1	 3.834
tex	 2	 36	 5	 848	 696	 hard	 right	 1	 3.834
tex	 2	 36	 6	 662	 410	 hard	 right	 1	 3.834
tex	 2	 36	 7	 559	 925	 hard	 right	 1	 3.834
tex	 2	 36	 8	 1093	 902	 hard	 right	 1	 3.834
tex	 2	 36	 9	 1150	 774	 hard	 right	 1	 3.834
tex	 2	 36	 10	 1430	 815	 hard	 right	 1	 3.834
tex	 2	 36	 11	 675	 347	 hard	 right	 1	 3.834
tex	 2	 36	 12	 586	 255	 hard	 right	 1	 3.834
tex	 2	 36	 13	 746	 509	 hard	 right	 1	 3.834
tex	 2	 37	 1	 963	 566	 easy	 right	 1	 2.158
tex	 2	 37	 2	 961	 534	 easy	 right	 1	 2.158
tex	 2	 37	 3	 841	 489	 easy	 right	 1	 2.158
tex	 2	 37	 4	 510	 537	 easy	 right	 1	 2.158
tex	 2	 37	 5	 670	 518	 easy	 right	 1	 2.158
tex	 2	 37	 6	 485	 551	 easy	 right	 1	 2.158
tex	 2	 37	 7	 1068	 510	 easy	 right	 1	 2.158
tex	 2	 37	 8	 1193	 712	 easy	 right	 1	 2.158
tex	 2	 37	 9	 1251	 757	 easy	 right	 1	 2.158
tex	 2	 38	 1	 961	 544	 easy	 right	 1	 1.539
tex	 2	 38	 2	 986	 566	 easy	 right	 1	 1.539
tex	 2	 38	 3	 869	 539	 easy	 right	 1	 1.539
tex	 2	 38	 4	 712	 442	 easy	 right	 1	 1.539
tex	 2	 38	 5	 566	 467	 easy	 right	 1	 1.539
tex	 2	 38	 6	 1112	 529	 easy	 right	 1	 1.539
tex	 2	 38	 7	 1261	 716	 easy	 right	 1	 1.539
tex	 2	 38	 8	 598	 864	 easy	 right	 1	 1.539
tex	 2	 39	 1	 969	 567	 hard	 left	 1	 2.144
tex	 2	 39	 2	 789	 550	 hard	 left	 1	 2.144
tex	 2	 39	 3	 1135	 500	 hard	 left	 1	 2.144
tex	 2	 39	 4	 1041	 456	 hard	 left	 1	 2.144
tex	 2	 39	 5	 1044	 686	 hard	 left	 1	 2.144
tex	 2	 39	 6	 1061	 655	 hard	 left	 1	 2.144
tex	 2	 39	 7	 1272	 780	 hard	 left	 1	 2.144
tex	 2	 39	 8	 1128	 584	 hard	 left	 1	 2.144
tex	 2	 40	 1	 970	 577	 hard	 right	 1	 1.313
tex	 2	 40	 2	 794	 634	 hard	 right	 1	 1.313
tex	 2	 40	 3	 648	 578	 hard	 right	 1	 1.313
tex	 2	 40	 4	 515	 578	 hard	 right	 1	 1.313
tex	 2	 41	 1	 941	 575	 easy	 left	 1	 0.661
tex	 2	 41	 2	 682	 578	 easy	 left	 1	 0.661
tex	 2	 42	 1	 949	 567	 hard	 right	 1	 0.963
tex	 2	 42	 2	 847	 584	 hard	 right	 1	 0.963
tex	 2	 42	 3	 608	 588	 hard	 right	 1	 0.963
tex	 2	 42	 4	 974	 472	 hard	 right	 1	 0.963
tex	 2	 42	 5	 783	 413	 hard	 right	 1	 0.963
tex	 2	 42	 6	 766	 383	 hard	 right	 1	 0.963
tex	 2	 43	 1	 965	 564	 hard	 left	 1	 3.455
tex	 2	 43	 2	 781	 464	 hard	 left	 1	 3.455
tex	 2	 43	 3	 1009	 469	 hard	 left	 1	 3.455
tex	 2	 43	 4	 1245	 705	 hard	 left	 1	 3.455
tex	 2	 43	 5	 1384	 439	 hard	 left	 1	 3.455
tex	 2	 43	 6	 692	 363	 hard	 left	 1	 3.455
tex	 2	 43	 7	 495	 454	 hard	 left	 1	 3.455
tex	 2	 43	 8	 639	 737	 hard	 left	 1	 3.455
tex	 2	 43	 9	 969	 771	 hard	 left	 1	 3.455
tex	 2	 43	 10	 740	 672	 hard	 left	 1	 3.455
tex	 2	 43	 11	 1113	 842	 hard	 left	 1	 3.455
tex	 2	 43	 12	 1109	 825	 hard	 left	 1	 3.455
tex	 2	 43	 13	 1056	 795	 hard	 left	 1	 3.455
tex	 2	 44	 1	 969	 566	 hard	 right	 1	 1.700
tex	 2	 44	 2	 829	 610	 hard	 right	 1	 1.700
tex	 2	 44	 3	 521	 498	 hard	 right	 1	 1.700
tex	 2	 44	 4	 732	 654	 hard	 right	 1	 1.700
tex	 2	 44	 5	 1090	 619	 hard	 right	 1	 1.700
tex	 2	 44	 6	 1187	 506	 hard	 right	 1	 1.700
tex	 2	 45	 1	 952	 562	 easy	 left	 1	 0.978
tex	 2	 45	 2	 1023	 562	 easy	 left	 1	 0.978
tex	 2	 45	 3	 804	 542	 easy	 left	 1	 0.978
tex	 2	 45	 4	 1017	 524	 easy	 left	 1	 0.978
tex	 2	 45	 5	 1121	 489	 easy	 left	 1	 0.978
tex	 2	 46	 1	 950	 540	 easy	 right	 1	 0.573
tex	 2	 46	 2	 1030	 726	 easy	 right	 1	 0.573
tex	 2	 46	 3	 1063	 817	 easy	 right	 1	 0.573
tex	 2	 47	 1	 949	 555	 hard	 left	 0	 1.520
tex	 2	 47	 2	 1065	 629	 hard	 left	 0	 1.520
tex	 2	 47	 3	 589	 749	 hard	 left	 0	 1.520
tex	 2	 47	 4	 761	 746	 hard	 left	 0	 1.520
tex	 2	 47	 5	 650	 372	 hard	 left	 0	 1.520
tex	 2	 47	 6	 1145	 370	 hard	 left	 0	 1.520
tex	 2	 48	 1	 951	 546	 easy	 left	 1	 1.287
tex	 2	 48	 2	 1017	 523	 easy	 left	 1	 1.287
tex	 2	 48	 3	 976	 648	 easy	 left	 1	 1.287
tex	 2	 48	 4	 564	 401	 easy	 left	 1	 1.287
tex	 2	 48	 5	 1077	 421	 easy	 left	 1	 1.287
tex	 2	 49	 1	 976	 556	 easy	 left	 1	 1.041
tex	 2	 49	 2	 884	 661	 easy	 left	 1	 1.041
tex	 2	 49	 3	 1237	 580	 easy	 left	 1	 1.041
tex	 2	 49	 4	 1192	 564	 easy	 left	 1	 1.041
tex	 2	 49	 5	 693	 452	 easy	 left	 1	 1.041
tex	 2	 50	 1	 971	 554	 hard	 right	 1	 2.109
tex	 2	 50	 2	 869	 565	 hard	 right	 1	 2.109
tex	 2	 50	 3	 779	 476	 hard	 right	 1	 2.109
tex	 2	 50	 4	 827	 464	 hard	 right	 1	 2.109
tex	 2	 50	 5	 542	 452	 hard	 right	 1	 2.109
tex	 2	 50	 6	 640	 695	 hard	 right	 1	 2.109
tex	 2	 50	 7	 490	 283	 hard	 right	 1	 2.109
tex	 2	 50	 8	 507	 242	 hard	 right	 1	 2.109
tex	 2	 50	 9	 462	 458	 hard	 right	 1	 2.109
tex	 2	 50	 10	 501	 433	 hard	 right	 1	 2.109
tex	 2	 51	 1	 967	 570	 hard	 left	 1	 2.180
tex	 2	 51	 2	 945	 544	 hard	 left	 1	 2.180
tex	 2	 51	 3	 1038	 703	 hard	 left	 1	 2.180
tex	 2	 51	 4	 1074	 752	 hard	 left	 1	 2.180
tex	 2	 51	 5	 1011	 686	 hard	 left	 1	 2.180
tex	 2	 52	 1	 983	 574	 easy	 left	 1	 2.598
tex	 2	 52	 2	 963	 590	 easy	 left	 1	 2.598
tex	 2	 52	 3	 1000	 615	 easy	 left	 1	 2.598
tex	 2	 52	 4	 599	 537	 easy	 left	 1	 2.598
tex	 2	 52	 5	 971	 633	 easy	 left	 1	 2.598
tex	 2	 52	 6	 1103	 592	 easy	 left	 1	 2.598
tex	 2	 52	 7	 1251	 788	 easy	 left	 1	 2.598
tex	 2	 52	 8	 1098	 687	 easy	 left	 1	 2.598
tex	 2	 52	 9	 1035	 607	 easy	 left	 1	 2.598
tex	 2	 52	 10	 1020	 404	 easy	 left	 1	 2.598
tex	 2	 52	 11	 1089	 358	 easy	 left	 1	 2.598
tex	 2	 53	 1	 958	 563	 hard	 left	 1	 1.184
tex	 2	 53	 2	 991	 573	 hard	 left	 1	 1.184
tex	 2	 53	 3	 595	 641	 hard	 left	 1	 1.184
tex	 2	 53	 4	 741	 845	 hard	 left	 1	 1.184
tex	 2	 53	 5	 1060	 666	 hard	 left	 1	 1.184
tex	 2	 54	 1	 954	 556	 easy	 right	 1	 1.887
tex	 2	 54	 2	 980	 562	 easy	 right	 1	 1.887
tex	 2	 54	 3	 847	 555	 easy	 right	 1	 1.887
tex	 2	 54	 4	 868	 471	 easy	 right	 1	 1.887
tex	 2	 54	 5	 554	 427	 easy	 right	 1	 1.887
tex	 2	 54	 6	 526	 397	 easy	 right	 1	 1.887
tex	 2	 54	 7	 731	 634	 easy	 right	 1	 1.887
tex	 2	 54	 8	 1112	 803	 easy	 right	 1	 1.887
tex	 2	 54	 9	 988	 512	 easy	 right	 1	 1.887
tex	 2	 55	 1	 942	 563	 easy	 left	 1	 0.827
tex	 2	 55	 2	 922	 559	 easy	 left	 1	 0.827
tex	 2	 55	 3	 807	 697	 easy	 left	 1	 0.827
tex	 2	 55	 4	 708	 822	 easy	 left	 1	 0.827
tex	 2	 55	 5	 730	 846	 easy	 left	 1	 0.827
tex	 2	 56	 1	 950	 585	 easy	 right	 1	 2.747
tex	 2	 56	 2	 877	 780	 easy	 right	 1	 2.747
tex	 2	 56	 3	 876	 636	 easy	 right	 1	 2.747
tex	 2	 56	 4	 502	 503	 easy	 right	 1	 2.747
tex	 2	 56	 5	 886	 567	 easy	 right	 1	 2.747
tex	 2	 56	 6	 697	 565	 easy	 right	 1	 2.747
tex	 2	 56	 7	 1202	 748	 easy	 right	 1	 2.747
tex	 2	 56	 8	 1233	 528	 easy	 right	 1	 2.747
tex	 2	 56	 9	 1161	 497	 easy	 right	 1	 2.747
tex	 2	 56	 10	 1411	 527	 easy	 right	 1	 2.747
tex	 2	 56	 11	 1481	 529	 easy	 right	 1	 2.747
tex	 2	 56	 12	 1316	 747	 easy	 right	 1	 2.747
tex	 2	 56	 13	 814	 642	 easy	 right	 1	 2.747
tex	 2	 57	 1	 977	 596	 hard	 left	 1	 1.709
tex	 2	 57	 2	 1353	 858	 hard	 left	 1	 1.709
tex	 2	 57	 3	 1073	 488	 hard	 left	 1	 1.709
tex	 2	 57	 4	 653	 512	 hard	 left	 1	 1.709
tex	 2	 57	 5	 935	 548	 hard	 left	 1	 1.709
tex	 2	 58	 1	 962	 546	 hard	 right	 1	 1.487
tex	 2	 58	 2	 836	 515	 hard	 right	 1	 1.487
tex	 2	 58	 3	 627	 512	 hard	 right	 1	 1.487
tex	 2	 58	 4	 925	 624	 hard	 right	 1	 1.487
tex	 2	 58	 5	 975	 644	 hard	 right	 1	 1.487
tex	 2	 58	 6	 951	 649	 hard	 right	 1	 1.487
tex	 2	 58	 7	 1057	 789	 hard	 right	 1	 1.487
tex	 2	 59	 1	 960	 566	 easy	 left	 1	 0.625
tex	 2	 59	 2	 606	 725	 easy	 left	 1	 0.625
tex	 2	 59	 3	 541	 749	 easy	 left	 1	 0.625
tex	 2	 60	 1	 961	 584	 easy	 left	 1	 1.291
tex	 2	 60	 2	 729	 627	 easy	 left	 1	 1.291
tex	 2	 60	 3	 570	 741	 easy	 left	 1	 1.291
tex	 2	 60	 4	 1060	 743	 easy	 left	 1	 1.291
tex	 2	 60	 5	 1133	 482	 easy	 left	 1	 1.291
tex	 2	 61	 1	 975	 577	 hard	 left	 1	 3.339
tex	 2	 61	 2	 966	 571	 hard	 left	 1	 3.339
tex	 2	 61	 3	 1003	 579	 hard	 left	 1	 3.339
tex	 2	 61	 4	 604	 506	 hard	 left	 1	 3.339
tex	 2	 61	 5	 1207	 700	 hard	 left	 1	 3.339
tex	 2	 61	 6	 1399	 868	 hard	 left	 1	 3.339
tex	 2	 61	 7	 1310	 853	 hard	 left	 1	 3.339
tex	 2	 61	 8	 1217	 375	 hard	 left	 1	 3.339
tex	 2	 61	 9	 647	 250	 hard	 left	 1	 3.339
tex	 2	 61	 10	 924	 358	 hard	 left	 1	 3.339
tex	 2	 61	 11	 1076	 409	 hard	 left	 1	 3.339
tex	 2	 61	 12	 1028	 485	 hard	 left	 1	 3.339
tex	 2	 62	 1	 983	 569	 easy	 right	 1	 0.533
tex	 2	 62	 2	 949	 568	 easy	 right	 1	 0.533
tex	 2	 62	 3	 934	 585	 easy	 right	 1	 0.533
tex	 2	 62	 4	 1374	 468	 easy	 right	 1	 0.533
tex	 2	 62	 5	 1407	 465	 easy	 right	 1	 0.533
tex	 2	 63	 1	 947	 584	 easy	 right	 1	 0.536
tex	 2	 63	 2	 965	 568	 easy	 right	 1	 0.536
tex	 2	 63	 3	 1259	 665	 easy	 right	 1	 0.536
tex	 2	 63	 4	 1284	 671	 easy	 right	 1	 0.536
tex	 2	 64	 1	 985	 608	 easy	 right	 1	 0.492
tex	 2	 64	 2	 1289	 624	 easy	 right	 1	 0.492
tex	 2	 64	 3	 1307	 603	 easy	 right	 1	 0.492
tex	 2	 65	 1	 997	 560	 hard	 left	 1	 1.182
tex	 2	 65	 2	 1141	 597	 hard	 left	 1	 1.182
tex	 2	 65	 3	 762	 568	 hard	 left	 1	 1.182
tex	 2	 65	 4	 1069	 383	 hard	 left	 1	 1.182
tex	 2	 65	 5	 1017	 342	 hard	 left	 1	 1.182
tex	 2	 65	 6	 525	 389	 hard	 left	 1	 1.182
tex	 2	 66	 1	 958	 564	 hard	 right	 1	 1.151
tex	 2	 66	 2	 973	 555	 hard	 right	 1	 1.151
tex	 2	 66	 3	 841	 616	 hard	 right	 1	 1.151
tex	 2	 66	 4	 521	 573	 hard	 right	 1	 1.151
tex	 2	 66	 5	 522	 296	 hard	 right	 1	 1.151
tex	 2	 66	 6	 527	 254	 hard	 right	 1	 1.151
tex	 2	 67	 1	 959	 536	 easy	 right	 1	 2.238
tex	 2	 67	 2	 842	 477	 easy	 right	 1	 2.238
tex	 2	 67	 3	 581	 443	 easy	 right	 1	 2.238
tex	 2	 67	 4	 863	 669	 easy	 right	 1	 2.238
tex	 2	 67	 5	 588	 254	 easy	 right	 1	 2.238
tex	 2	 67	 6	 563	 231	 easy	 right	 1	 2.238
tex	 2	 67	 7	 557	 177	 easy	 right	 1	 2.238
tex	 2	 67	 8	 432	 360	 easy	 right	 1	 2.238
tex	 2	 67	 9	 1098	 775	 easy	 right	 1	 2.238
tex	 2	 67	 10	 1248	 918	 easy	 right	 1	 2.238
tex	 2	 68	 1	 972	 555	 hard	 right	 1	 0.830
tex	 2	 68	 2	 840	 552	 hard	 right	 1	 0.830
tex	 2	 68	 3	 736	 309	 hard	 right	 1	 0.830
tex	 2	 68	 4	 760	 293	 hard	 right	 1	 0.830
tex	 2	 69	 1	 943	 539	 easy	 left	 1	 2.470
tex	 2	 69	 2	 874	 433	 easy	 left	 1	 2.470
tex	 2	 69	 3	 1123	 774	 easy	 left	 1	 2.470
tex	 2	 69	 4	 1052	 749	 easy	 left	 1	 2.470
tex	 2	 69	 5	 1286	 734	 easy	 left	 1	 2.470
tex	 2	 69	 6	 1198	 765	 easy	 left	 1	 2.470
tex	 2	 69	 7	 1156	 484	 easy	 left	 1	 2.470
tex	 2	 69	 8	 1391	 630	 easy	 left	 1	 2.470
tex	 2	 69	 9	 708	 685	 easy	 left	 1	 2.470
tex	 2	 69	 10	 533	 738	 easy	 left	 1	 2.470
tex	 2	 70	 1	 967	 558	 easy	 right	 1	 0.736
tex	 2	 70	 2	 1186	 502	 easy	 right	 1	 0.736
tex	 2	 70	 3	 1393	 702	 easy	 right	 1	 0.736
tex	 2	 70	 4	 896	 591	 easy	 right	 1	 0.736
tex	 2	 70	 5	 817	 571	 easy	 right	 1	 0.736
tex	 2	 71	 1	 975	 553	 easy	 right	 1	 1.616
tex	 2	 71	 2	 957	 560	 easy	 right	 1	 1.616
tex	 2	 71	 3	 710	 582	 easy	 right	 1	 1.616
tex	 2	 71	 4	 515	 286	 easy	 right	 1	 1.616
tex	 2	 71	 5	 818	 226	 easy	 right	 1	 1.616
tex	 2	 71	 6	 677	 804	 easy	 right	 1	 1.616
tex	 2	 71	 7	 688	 746	 easy	 right	 1	 1.616
tex	 2	 71	 8	 1230	 840	 easy	 right	 1	 1.616
tex	 2	 72	 1	 966	 564	 easy	 left	 1	 2.225
tex	 2	 72	 2	 1062	 564	 easy	 left	 1	 2.225
tex	 2	 72	 3	 631	 828	 easy	 left	 1	 2.225
tex	 2	 72	 4	 1170	 579	 easy	 left	 1	 2.225
tex	 2	 72	 5	 1005	 300	 easy	 left	 1	 2.225
tex	 2	 72	 6	 1165	 529	 easy	 left	 1	 2.225
tex	 2	 72	 7	 1043	 690	 easy	 left	 1	 2.225
tex	 2	 73	 1	 951	 594	 easy	 right	 1	 0.529
tex	 2	 73	 2	 847	 621	 easy	 right	 1	 0.529
tex	 2	 73	 3	 1024	 829	 easy	 right	 1	 0.529
tex	 2	 74	 1	 973	 566	 easy	 left	 1	 1.949
tex	 2	 74	 2	 1045	 783	 easy	 left	 1	 1.949
tex	 2	 74	 3	 531	 426	 easy	 left	 1	 1.949
tex	 2	 74	 4	 984	 784	 easy	 left	 1	 1.949
tex	 2	 74	 5	 1009	 544	 easy	 left	 1	 1.949
tex	 2	 74	 6	 972	 515	 easy	 left	 1	 1.949
tex	 2	 74	 7	 620	 243	 easy	 left	 1	 1.949
tex	 2	 74	 8	 1003	 356	 easy	 left	 1	 1.949
tex	 2	 75	 1	 976	 566	 hard	 left	 1	 0.981
tex	 2	 75	 2	 1038	 594	 hard	 left	 1	 0.981
tex	 2	 75	 3	 1049	 420	 hard	 left	 1	 0.981
tex	 2	 75	 4	 1087	 402	 hard	 left	 1	 0.981
tex	 2	 76	 1	 920	 491	 easy	 left	 1	 4.674
tex	 2	 76	 2	 1015	 432	 easy	 left	 1	 4.674
tex	 2	 76	 3	 1025	 595	 easy	 left	 1	 4.674
tex	 2	 76	 4	 1086	 703	 easy	 left	 1	 4.674
tex	 2	 76	 5	 1077	 623	 easy	 left	 1	 4.674
tex	 2	 76	 6	 802	 559	 easy	 left	 1	 4.674
tex	 2	 76	 7	 641	 639	 easy	 left	 1	 4.674
tex	 2	 76	 8	 729	 564	 easy	 left	 1	 4.674
tex	 2	 76	 9	 1016	 390	 easy	 left	 1	 4.674
tex	 2	 76	 10	 896	 773	 easy	 left	 1	 4.674
tex	 2	 76	 11	 985	 818	 easy	 left	 1	 4.674
tex	 2	 76	 12	 1345	 686	 easy	 left	 1	 4.674
tex	 2	 76	 13	 1197	 666	 easy	 left	 1	 4.674
tex	 2	 77	 1	 945	 566	 hard	 left	 1	 0.598
tex	 2	 77	 2	 1043	 600	 hard	 left	 1	 0.598
tex	 2	 78	 1	 958	 562	 hard	 right	 1	 1.500
tex	 2	 78	 2	 815	 572	 hard	 right	 1	 1.500
tex	 2	 78	 3	 734	 514	 hard	 right	 1	 1.500
tex	 2	 78	 4	 1152	 639	 hard	 right	 1	 1.500
tex	 2	 78	 5	 980	 578	 hard	 right	 1	 1.500
tex	 2	 78	 6	 836	 544	 hard	 right	 1	 1.500
tex	 2	 79	 1	 956	 576	 easy	 left	 1	 0.648
tex	 2	 79	 2	 867	 500	 easy	 left	 1	 0.648
tex	 2	 79	 3	 845	 478	 easy	 left	 1	 0.648
tex	 2	 79	 4	 869	 484	 easy	 left	 1	 0.648
tex	 2	 80	 1	 946	 578	 hard	 right	 1	 1.556
tex	 2	 80	 2	 839	 527	 hard	 right	 1	 1.556
tex	 2	 80	 3	 583	 483	 hard	 right	 1	 1.556
tex	 2	 80	 4	 624	 279	 hard	 right	 1	 1.556
tex	 2	 80	 5	 730	 314	 hard	 right	 1	 1.556
tex	 2	 80	 6	 733	 290	 hard	 right	 1	 1.556
tex	 2	 81	 1	 957	 554	 hard	 right	 1	 4.708
tex	 2	 81	 2	 865	 425	 hard	 right	 1	 4.708
tex	 2	 81	 3	 630	 439	 hard	 right	 1	 4.708
tex	 2	 81	 4	 1009	 387	 hard	 right	 1	 4.708
tex	 2	 81	 5	 1164	 514	 hard	 right	 1	 4.708
tex	 2	 81	 6	 609	 321	 hard	 right	 1	 4.708
tex	 2	 81	 7	 575	 394	 hard	 right	 1	 4.708
tex	 2	 81	 8	 716	 482	 hard	 right	 1	 4.708
tex	 2	 81	 9	 753	 615	 hard	 right	 1	 4.708
tex	 2	 81	 10	 603	 570	 hard	 right	 1	 4.708
tex	 2	 81	 11	 708	 821	 hard	 right	 1	 4.708
tex	 2	 81	 12	 827	 832	 hard	 right	 1	 4.708
tex	 2	 81	 13	 764	 898	 hard	 right	 1	 4.708
tex	 2	 81	 14	 1008	 701	 hard	 right	 1	 4.708
tex	 2	 81	 15	 910	 624	 hard	 right	 1	 4.708
tex	 2	 82	 1	 940	 548	 easy	 right	 1	 0.664
tex	 2	 82	 2	 747	 473	 easy	 right	 1	 0.664
tex	 2	 82	 3	 1124	 315	 easy	 right	 1	 0.664
tex	 2	 82	 4	 1160	 290	 easy	 right	 1	 0.664
tex	 2	 83	 1	 966	 538	 easy	 right	 1	 2.948
tex	 2	 83	 2	 869	 466	 easy	 right	 1	 2.948
tex	 2	 83	 3	 754	 451	 easy	 right	 1	 2.948
tex	 2	 83	 4	 533	 642	 easy	 right	 1	 2.948
tex	 2	 83	 5	 611	 518	 easy	 right	 1	 2.948
tex	 2	 83	 6	 758	 425	 easy	 right	 1	 2.948
tex	 2	 83	 7	 662	 417	 easy	 right	 1	 2.948
tex	 2	 83	 8	 868	 391	 easy	 right	 1	 2.948
tex	 2	 83	 9	 1060	 376	 easy	 right	 1	 2.948
tex	 2	 83	 10	 1108	 723	 easy	 right	 1	 2.948
tex	 2	 83	 11	 899	 742	 easy	 right	 1	 2.948
tex	 2	 84	 1	 972	 521	 easy	 left	 1	 0.571
tex	 2	 84	 2	 917	 520	 easy	 left	 1	 0.571
tex	 2	 84	 3	 611	 746	 easy	 left	 1	 0.571
tex	 2	 84	 4	 575	 710	 easy	 left	 1	 0.571
tex	 2	 85	 1	 968	 566	 easy	 left	 1	 0.746
tex	 2	 85	 2	 780	 618	 easy	 left	 1	 0.746
tex	 2	 85	 3	 804	 278	 easy	 left	 1	 0.746
tex	 2	 85	 4	 772	 307	 easy	 left	 1	 0.746
tex	 2	 86	 1	 876	 419	 hard	 left	 1	 0.993
tex	 2	 86	 2	 872	 431	 hard	 left	 1	 0.993
tex	 2	 86	 3	 1290	 432	 hard	 left	 1	 0.993
tex	 2	 86	 4	 1386	 442	 hard	 left	 1	 0.993
tex	 2	 87	 1	 940	 504	 hard	 right	 1	 1.970
tex	 2	 87	 2	 794	 465	 hard	 right	 1	 1.970
tex	 2	 87	 3	 1283	 386	 hard	 right	 1	 1.970
tex	 2	 87	 4	 1123	 684	 hard	 right	 1	 1.970
tex	 2	 87	 5	 1132	 625	 hard	 right	 1	 1.970
tex	 2	 87	 6	 640	 637	 hard	 right	 1	 1.970
tex	 2	 87	 7	 549	 630	 hard	 right	 1	 1.970
tex	 2	 88	 1	 969	 556	 easy	 right	 1	 0.527
tex	 2	 88	 2	 1232	 591	 easy	 right	 1	 0.527
tex	 2	 88	 3	 1210	 580	 easy	 right	 1	 0.527
tex	 2	 89	 1	 963	 563	 hard	 right	 1	 0.861
tex	 2	 89	 2	 787	 514	 hard	 right	 1	 0.861
tex	 2	 89	 3	 774	 370	 hard	 right	 1	 0.861
tex	 2	 90	 1	 939	 531	 hard	 left	 1	 1.756
tex	 2	 90	 2	 1095	 518	 hard	 left	 1	 1.756
tex	 2	 90	 3	 1023	 456	 hard	 left	 1	 1.756
tex	 2	 90	 4	 1012	 382	 hard	 left	 1	 1.756
tex	 2	 90	 5	 1260	 570	 hard	 left	 1	 1.756
tex	 2	 90	 6	 588	 741	 hard	 left	 1	 1.756
tex	 2	 90	 7	 1315	 570	 hard	 left	 1	 1.756
tex	 2	 90	 8	 1346	 560	 hard	 left	 1	 1.756
tex	 2	 91	 1	 956	 559	 easy	 left	 0	 1.327
tex	 2	 91	 2	 577	 646	 easy	 left	 0	 1.327
tex	 2	 91	 3	 504	 700	 easy	 left	 0	 1.327
tex	 2	 91	 4	 536	 685	 easy	 left	 0	 1.327
tex	 2	 91	 5	 530	 695	 easy	 left	 0	 1.327
tex	 2	 91	 6	 534	 669	 easy	 left	 0	 1.327
tex	 2	 92	 1	 955	 598	 easy	 right	 1	 1.400
tex	 2	 92	 2	 665	 648	 easy	 right	 1	 1.400
tex	 2	 92	 3	 847	 424	 easy	 right	 1	 1.400
tex	 2	 92	 4	 1105	 328	 easy	 right	 1	 1.400
tex	 2	 92	 5	 1009	 693	 easy	 right	 1	 1.400
tex	 2	 92	 6	 1157	 704	 easy	 right	 1	 1.400
tex	 2	 93	 1	 944	 562	 hard	 left	 1	 0.893
tex	 2	 93	 2	 1097	 747	 hard	 left	 1	 0.893
tex	 2	 93	 3	 1139	 881	 hard	 left	 1	 0.893
tex	 2	 93	 4	 1154	 867	 hard	 left	 1	 0.893
tex	 2	 94	 1	 966	 557	 hard	 left	 1	 3.733
tex	 2	 94	 2	 949	 593	 hard	 left	 1	 3.733
tex	 2	 94	 3	 1021	 433	 hard	 left	 1	 3.733
tex	 2	 94	 4	 537	 610	 hard	 left	 1	 3.733
tex	 2	 94	 5	 1062	 489	 hard	 left	 1	 3.733
tex	 2	 94	 6	 1088	 674	 hard	 left	 1	 3.733
tex	 2	 94	 7	 1187	 879	 hard	 left	 1	 3.733
tex	 2	 94	 8	 1084	 855	 hard	 left	 1	 3.733
tex	 2	 94	 9	 967	 541	 hard	 left	 1	 3.733
tex	 2	 94	 10	 1014	 516	 hard	 left	 1	 3.733
tex	 2	 94	 11	 998	 409	 hard	 left	 1	 3.733
tex	 2	 94	 12	 1365	 665	 hard	 left	 1	 3.733
tex	 2	 94	 13	 846	 630	 hard	 left	 1	 3.733
tex	 2	 95	 1	 951	 572	 easy	 left	 0	 1.818
tex	 2	 95	 2	 533	 544	 easy	 left	 0	 1.818
tex	 2	 95	 3	 510	 528	 easy	 left	 0	 1.818
tex	 2	 95	 4	 526	 527	 easy	 left	 0	 1.818
tex	 2	 95	 5	 783	 487	 easy	 left	 0	 1.818
tex	 2	 95	 6	 565	 519	 easy	 left	 0	 1.818
tex	 2	 95	 7	 517	 532	 easy	 left	 0	 1.818
tex	 2	 95	 8	 544	 509	 easy	 left	 0	 1.818
tex	 2	 95	 9	 519	 520	 easy	 left	 0	 1.818
tex	 2	 96	 1	 962	 571	 hard	 left	 0	 1.932
tex	 2	 96	 2	 1089	 669	 hard	 left	 0	 1.932
tex	 2	 96	 3	 560	 792	 hard	 left	 0	 1.932
tex	 2	 96	 4	 486	 491	 hard	 left	 0	 1.932
tex	 2	 96	 5	 893	 324	 hard	 left	 0	 1.932
tex	 2	 96	 6	 1153	 354	 hard	 left	 0	 1.932
tex	 2	 96	 7	 1144	 594	 hard	 left	 0	 1.932
tex	 3	 1	 1	 948	 553	 easy	 left	 0	 5.000
tex	 3	 1	 2	 889	 737	 easy	 left	 0	 5.000
tex	 3	 1	 3	 690	 1395	 easy	 left	 0	 5.000
tex	 3	 1	 4	 870	 841	 easy	 left	 0	 5.000
tex	 3	 1	 5	 935	 527	 easy	 left	 0	 5.000
tex	 3	 1	 6	 1050	 1881	 easy	 left	 0	 5.000
tex	 3	 1	 7	 967	 524	 easy	 left	 0	 5.000
tex	 3	 1	 8	 927	 498	 easy	 left	 0	 5.000
tex	 3	 2	 1	 947	 544	 easy	 left	 0	 5.001
tex	 3	 2	 2	 880	 558	 easy	 left	 0	 5.001
tex	 3	 2	 3	 835	 618	 easy	 left	 0	 5.001
tex	 3	 2	 4	 1273	 651	 easy	 left	 0	 5.001
tex	 3	 2	 5	 993	 577	 easy	 left	 0	 5.001
tex	 3	 2	 6	 868	 531	 easy	 left	 0	 5.001
tex	 3	 2	 7	 827	 507	 easy	 left	 0	 5.001
tex	 3	 2	 8	 922	 512	 easy	 left	 0	 5.001
tex	 3	 2	 9	 956	 560	 easy	 left	 0	 5.001
tex	 3	 2	 10	 758	 654	 easy	 left	 0	 5.001
tex	 3	 2	 11	 1237	 647	 easy	 left	 0	 5.001
tex	 3	 2	 12	 1133	 537	 easy	 left	 0	 5.001
tex	 3	 2	 13	 830	 430	 easy	 left	 0	 5.001
tex	 3	 2	 14	 825	 413	 easy	 left	 0	 5.001
tex	 3	 2	 15	 976	 422	 easy	 left	 0	 5.001
tex	 3	 2	 16	 1012	 488	 easy	 left	 0	 5.001
tex	 3	 3	 1	 961	 545	 easy	 left	 0	 5.001
tex	 3	 3	 2	 793	 564	 easy	 left	 0	 5.001
tex	 3	 3	 3	 1182	 559	 easy	 left	 0	 5.001
tex	 3	 3	 4	 825	 554	 easy	 left	 0	 5.001
tex	 3	 3	 5	 1181	 559	 easy	 left	 0	 5.001
tex	 3	 3	 6	 1228	 568	 easy	 left	 0	 5.001
tex	 3	 3	 7	 611	 578	 easy	 left	 0	 5.001
tex	 3	 3	 8	 521	 659	 easy	 left	 0	 5.001
tex	 3	 3	 9	 881	 361	 easy	 left	 0	 5.001
tex	 3	 3	 10	 1056	 264	 easy	 left	 0	 5.001
tex	 3	 3	 11	 1238	 299	 easy	 left	 0	 5.001
tex	 3	 3	 12	 1230	 421	 easy	 left	 0	 5.001
tex	 3	 3	 13	 1005	 500	 easy	 left	 0	 5.001
tex	 3	 3	 14	 877	 585	 easy	 left	 0	 5.001
tex	 3	 4	 1	 950	 559	 easy	 left	 0	 5.001
tex	 3	 4	 2	 978	 527	 easy	 left	 0	 5.001
tex	 3	 4	 3	 892	 524	 easy	 left	 0	 5.001
tex	 3	 4	 4	 942	 512	 easy	 left	 0	 5.001
tex	 3	 4	 5	 987	 535	 easy	 left	 0	 5.001
tex	 3	 4	 6	 867	 544	 easy	 left	 0	 5.001
tex	 3	 4	 7	 847	 543	 easy	 left	 0	 5.001
tex	 3	 4	 8	 872	 499	 easy	 left	 0	 5.001
tex	 3	 4	 9	 965	 501	 easy	 left	 0	 5.001
tex	 3	 4	 10	 886	 546	 easy	 left	 0	 5.001
tex	 3	 4	 11	 842	 554	 easy	 left	 0	 5.001
tex	 3	 4	 12	 872	 610	 easy	 left	 0	 5.001
tex	 3	 4	 13	 844	 801	 easy	 left	 0	 5.001
tex	 3	 4	 14	 863	 773	 easy	 left	 0	 5.001
tex	 3	 4	 15	 879	 686	 easy	 left	 0	 5.001
tex	 3	 4	 16	 875	 731	 easy	 left	 0	 5.001
tex	 3	 5	 1	 959	 543	 easy	 left	 0	 5.002
tex	 3	 5	 2	 902	 568	 easy	 left	 0	 5.002
tex	 3	 5	 3	 721	 397	 easy	 left	 0	 5.002
tex	 3	 5	 4	 564	 256	 easy	 left	 0	 5.002
tex	 3	 5	 5	 474	 206	 easy	 left	 0	 5.002
tex	 3	 5	 6	 1180	 444	 easy	 left	 0	 5.002
tex	 3	 5	 7	 1418	 592	 easy	 left	 0	 5.002
tex	 3	 5	 8	 1126	 600	 easy	 left	 0	 5.002
tex	 3	 5	 9	 1298	 851	 easy	 left	 0	 5.002
tex	 3	 5	 10	 1013	 664	 easy	 left	 0	 5.002
tex	 3	 5	 11	 863	 592	 easy	 left	 0	 5.002
tex	 3	 5	 12	 947	 552	 easy	 left	 0	 5.002
tex	 3	 5	 13	 1107	 584	 easy	 left	 0	 5.002
tex	 3	 5	 14	 993	 546	 easy	 left	 0	 5.002
tex	 3	 6	 1	 949	 546	 easy	 left	 0	 5.001
tex	 3	 6	 2	 814	 557	 easy	 left	 0	 5.001
tex	 3	 6	 3	 795	 503	 easy	 left	 0	 5.001
tex	 3	 6	 4	 718	 457	 easy	 left	 0	 5.001
tex	 3	 6	 5	 968	 466	 easy	 left	 0	 5.001
tex	 3	 6	 6	 1306	 574	 easy	 left	 0	 5.001
tex	 3	 6	 7	 1046	 530	 easy	 left	 0	 5.001
tex	 3	 6	 8	 997	 533	 easy	 left	 0	 5.001
tex	 3	 6	 9	 903	 496	 easy	 left	 0	 5.001
tex	 3	 6	 10	 959	 508	 easy	 left	 0	 5.001
tex	 3	 6	 11	 1015	 502	 easy	 left	 0	 5.001
tex	 3	 6	 12	 1033	 477	 easy	 left	 0	 5.001
tex	 3	 7	 1	 969	 542	 easy	 left	 0	 5.001
tex	 3	 7	 2	 853	 528	 easy	 left	 0	 5.001
tex	 3	 7	 3	 1003	 390	 easy	 left	 0	 5.001
tex	 3	 7	 4	 1098	 466	 easy	 left	 0	 5.001
tex	 3	 7	 5	 973	 497	 easy	 left	 0	 5.001
tex	 3	 7	 6	 915	 491	 easy	 left	 0	 5.001
tex	 3	 7	 7	 964	 503	 easy	 left	 0	 5.001
tex	 3	 7	 8	 851	 535	 easy	 left	 0	 5.001
tex	 3	 7	 9	 795	 540	 easy	 left	 0	 5.001
tex	 3	 7	 10	 915	 501	 easy	 left	 0	 5.001
tex	 3	 7	 11	 859	 485	 easy	 left	 0	 5.001
tex	 3	 8	 1	 944	 571	 easy	 left	 0	 5.001
tex	 3	 8	 2	 887	 516	 easy	 left	 0	 5.001
tex	 3	 8	 3	 843	 532	 easy	 left	 0	 5.001
tex	 3	 8	 4	 847	 698	 easy	 left	 0	 5.001
tex	 3	 8	 5	 699	 482	 easy	 left	 0	 5.001
tex	 3	 8	 6	 991	 493	 easy	 left	 0	 5.001
tex	 3	 8	 7	 1224	 794	 easy	 left	 0	 5.001
tex	 3	 8	 8	 948	 663	 easy	 left	 0	 5.001
tex	 3	 8	 9	 841	 568	 easy	 left	 0	 5.001
tex	 3	 8	 10	 792	 527	 easy	 left	 0	 5.001
tex	 3	 8	 11	 871	 461	 easy	 left	 0	 5.001
tex	 3	 8	 12	 1036	 531	 easy	 left	 0	 5.001
tex	 3	 8	 13	 1042	 756	 easy	 left	 0	 5.001
tex	 3	 8	 14	 886	 536	 easy	 left	 0	 5.001
tex	 3	 9	 1	 932	 561	 easy	 left	 0	 5.001
tex	 3	 9	 2	 786	 543	 easy	 left	 0	 5.001
tex	 3	 9	 3	 810	 521	 easy	 left	 0	 5.001
tex	 3	 9	 4	 936	 516	 easy	 left	 0	 5.001
tex	 3	 9	 5	 867	 476	 easy	 left	 0	 5.001
tex	 3	 9	 6	 877	 453	 easy	 left	 0	 5.001
tex	 3	 9	 7	 901	 444	 easy	 left	 0	 5.001
tex	 3	 9	 8	 1006	 489	 easy	 left	 0	 5.001
tex	 3	 9	 9	 1114	 604	 easy	 left	 0	 5.001
tex	 3	 9	 10	 1028	 554	 easy	 left	 0	 5.001
tex	 3	 9	 11	 1246	 536	 easy	 left	 0	 5.001
tex	 3	 10	 1	 957	 541	 easy	 left	 0	 5.001
tex	 3	 10	 2	 854	 489	 easy	 left	 0	 5.001
tex	 3	 10	 3	 762	 386	 easy	 left	 0	 5.001
tex	 3	 10	 4	 1136	 405	 easy	 left	 0	 5.001
tex	 3	 10	 5	 971	 452	 easy	 left	 0	 5.001
tex	 3	 10	 6	 968	 628	 easy	 left	 0	 5.001
tex	 3	 10	 7	 1506	 1203	 easy	 left	 0	 5.001
tex	 3	 10	 8	 3202	 571	 easy	 left	 0	 5.001
tex	 3	 10	 9	 1022	 584	 easy	 left	 0	 5.001
tex	 3	 10	 10	 928	 533	 easy	 left	 0	 5.001
tex	 3	 10	 11	 1018	 355	 easy	 left	 0	 5.001
tex	 3	 10	 12	 959	 550	 easy	 left	 0	 5.001
tex	 3	 10	 13	 791	 575	 easy	 left	 0	 5.001
tex	 3	 11	 1	 955	 575	 undef	 left	 0	 1.066
tex	 3	 11	 2	 966	 549	 undef	 left	 0	 1.066
tex	 3	 11	 3	 869	 483	 undef	 left	 0	 1.066
tex	 3	 11	 4	 1353	 506	 undef	 left	 0	 1.066
tex	 3	 12	 1	 921	 525	 undef	 left	 0	 1.339
tex	 3	 12	 2	 1169	 679	 undef	 left	 0	 1.339
tex	 3	 12	 3	 1139	 592	 undef	 left	 0	 1.339
tex	 3	 12	 4	 1121	 481	 undef	 left	 0	 1.339
tex	 3	 12	 5	 647	 497	 undef	 left	 0	 1.339
tex	 3	 13	 1	 973	 494	 undef	 left	 1	 1.571
tex	 3	 13	 2	 753	 483	 undef	 left	 1	 1.571
tex	 3	 13	 3	 585	 316	 undef	 left	 1	 1.571
tex	 3	 13	 4	 948	 446	 undef	 left	 1	 1.571
tex	 3	 13	 5	 1146	 620	 undef	 left	 1	 1.571
tex	 3	 13	 6	 1115	 728	 undef	 left	 1	 1.571
tex	 3	 14	 1	 966	 521	 undef	 left	 1	 1.559
tex	 3	 14	 2	 859	 509	 undef	 left	 1	 1.559
tex	 3	 14	 3	 818	 464	 undef	 left	 1	 1.559
tex	 3	 14	 4	 1182	 636	 undef	 left	 1	 1.559
tex	 3	 14	 5	 606	 263	 undef	 left	 1	 1.559
tex	 3	 14	 6	 509	 235	 undef	 left	 1	 1.559
tex	 3	 14	 7	 1279	 861	 undef	 left	 1	 1.559
tex	 3	 15	 1	 975	 538	 undef	 left	 0	 1.561
tex	 3	 15	 2	 861	 550	 undef	 left	 0	 1.561
tex	 3	 15	 3	 1055	 613	 undef	 left	 0	 1.561
tex	 3	 15	 4	 744	 650	 undef	 left	 0	 1.561
tex	 3	 15	 5	 732	 462	 undef	 left	 0	 1.561
tex	 3	 15	 6	 1340	 624	 undef	 left	 0	 1.561
tex	 3	 16	 1	 959	 542	 undef	 left	 1	 0.743
tex	 3	 16	 2	 998	 496	 undef	 left	 1	 0.743
tex	 3	 16	 3	 828	 489	 undef	 left	 1	 0.743
tex	 3	 16	 4	 856	 489	 undef	 left	 1	 0.743
tex	 3	 17	 1	 973	 545	 hard	 right	 0	 1.227
tex	 3	 17	 2	 932	 505	 hard	 right	 0	 1.227
tex	 3	 17	 3	 785	 449	 hard	 right	 0	 1.227
tex	 3	 17	 4	 1275	 515	 hard	 right	 0	 1.227
tex	 3	 17	 5	 627	 445	 hard	 right	 0	 1.227
tex	 3	 18	 1	 969	 505	 hard	 right	 0	 1.064
tex	 3	 18	 2	 917	 469	 hard	 right	 0	 1.064
tex	 3	 18	 3	 881	 499	 hard	 right	 0	 1.064
tex	 3	 18	 4	 1238	 647	 hard	 right	 0	 1.064
tex	 3	 18	 5	 1437	 680	 hard	 right	 0	 1.064
tex	 3	 18	 6	 862	 662	 hard	 right	 0	 1.064
tex	 3	 18	 7	 650	 500	 hard	 right	 0	 1.064
tex	 3	 19	 1	 990	 478	 easy	 right	 1	 0.620
tex	 3	 19	 2	 1257	 323	 easy	 right	 1	 0.620
tex	 3	 19	 3	 1236	 312	 easy	 right	 1	 0.620
tex	 3	 20	 1	 960	 553	 hard	 right	 1	 1.544
tex	 3	 20	 2	 1031	 492	 hard	 right	 1	 1.544
tex	 3	 20	 3	 1157	 428	 hard	 right	 1	 1.544
tex	 3	 20	 4	 1313	 469	 hard	 right	 1	 1.544
tex	 3	 20	 5	 700	 536	 hard	 right	 1	 1.544
tex	 3	 20	 6	 637	 486	 hard	 right	 1	 1.544
tex	 3	 20	 7	 530	 590	 hard	 right	 1	 1.544
tex	 3	 21	 1	 995	 531	 hard	 right	 1	 1.106
tex	 3	 21	 2	 960	 501	 hard	 right	 1	 1.106
tex	 3	 21	 3	 766	 507	 hard	 right	 1	 1.106
tex	 3	 21	 4	 599	 675	 hard	 right	 1	 1.106
tex	 3	 21	 5	 540	 713	 hard	 right	 1	 1.106
tex	 3	 22	 1	 975	 564	 easy	 left	 1	 1.590
tex	 3	 22	 2	 889	 635	 easy	 left	 1	 1.590
tex	 3	 22	 3	 897	 633	 easy	 left	 1	 1.590
tex	 3	 23	 1	 961	 537	 hard	 left	 0	 3.564
tex	 3	 23	 2	 759	 337	 hard	 left	 0	 3.564
tex	 3	 23	 3	 1248	 556	 hard	 left	 0	 3.564
tex	 3	 23	 4	 1195	 573	 hard	 left	 0	 3.564
tex	 3	 23	 5	 773	 630	 hard	 left	 0	 3.564
tex	 3	 23	 6	 894	 473	 hard	 left	 0	 3.564
tex	 3	 23	 7	 1064	 497	 hard	 left	 0	 3.564
tex	 3	 23	 8	 1007	 453	 hard	 left	 0	 3.564
tex	 3	 23	 9	 1112	 353	 hard	 left	 0	 3.564
tex	 3	 23	 10	 1003	 417	 hard	 left	 0	 3.564
tex	 3	 24	 1	 973	 534	 easy	 left	 1	 3.200
tex	 3	 24	 2	 581	 411	 easy	 left	 1	 3.200
tex	 3	 24	 3	 574	 381	 easy	 left	 1	 3.200
tex	 3	 24	 4	 558	 354	 easy	 left	 1	 3.200
tex	 3	 24	 5	 577	 382	 easy	 left	 1	 3.200
tex	 3	 25	 1	 961	 520	 easy	 right	 1	 2.200
tex	 3	 25	 2	 910	 481	 easy	 right	 1	 2.200
tex	 3	 25	 3	 653	 543	 easy	 right	 1	 2.200
tex	 3	 25	 4	 1355	 512	 easy	 right	 1	 2.200
tex	 3	 25	 5	 1079	 410	 easy	 right	 1	 2.200
tex	 3	 25	 6	 745	 381	 easy	 right	 1	 2.200
tex	 3	 25	 7	 628	 317	 easy	 right	 1	 2.200
tex	 3	 26	 1	 963	 562	 hard	 left	 1	 0.843
tex	 3	 26	 2	 982	 541	 hard	 left	 1	 0.843
tex	 3	 26	 3	 1029	 617	 hard	 left	 1	 0.843
tex	 3	 27	 1	 976	 550	 easy	 right	 0	 1.462
tex	 3	 27	 2	 938	 536	 easy	 right	 0	 1.462
tex	 3	 27	 3	 667	 405	 easy	 right	 0	 1.462
tex	 3	 27	 4	 1177	 546	 easy	 right	 0	 1.462
tex	 3	 27	 5	 1223	 391	 easy	 right	 0	 1.462
tex	 3	 28	 1	 969	 518	 hard	 left	 1	 0.904
tex	 3	 28	 2	 877	 526	 hard	 left	 1	 0.904
tex	 3	 28	 3	 1319	 511	 hard	 left	 1	 0.904
tex	 3	 28	 4	 1376	 501	 hard	 left	 1	 0.904
tex	 3	 29	 1	 965	 567	 hard	 left	 1	 6.798
tex	 3	 29	 2	 1209	 530	 hard	 left	 1	 6.798
tex	 3	 29	 3	 1217	 777	 hard	 left	 1	 6.798
tex	 3	 29	 4	 1205	 512	 hard	 left	 1	 6.798
tex	 3	 29	 5	 1144	 580	 hard	 left	 1	 6.798
tex	 3	 29	 6	 1151	 823	 hard	 left	 1	 6.798
tex	 3	 29	 7	 1145	 584	 hard	 left	 1	 6.798
tex	 3	 29	 8	 732	 529	 hard	 left	 1	 6.798
tex	 3	 29	 9	 739	 798	 hard	 left	 1	 6.798
tex	 3	 29	 10	 729	 533	 hard	 left	 1	 6.798
tex	 3	 29	 11	 942	 468	 hard	 left	 1	 6.798
tex	 3	 29	 12	 950	 569	 hard	 left	 1	 6.798
tex	 3	 29	 13	 942	 468	 hard	 left	 1	 6.798
tex	 3	 29	 14	 1013	 433	 hard	 left	 1	 6.798
tex	 3	 29	 15	 1103	 429	 hard	 left	 1	 6.798
tex	 3	 29	 16	 1112	 493	 hard	 left	 1	 6.798
tex	 3	 29	 17	 988	 492	 hard	 left	 1	 6.798
tex	 3	 29	 18	 1010	 413	 hard	 left	 1	 6.798
tex	 3	 29	 19	 1077	 347	 hard	 left	 1	 6.798
tex	 3	 29	 20	 915	 411	 hard	 left	 1	 6.798
tex	 3	 29	 21	 827	 518	 hard	 left	 1	 6.798
tex	 3	 29	 22	 1140	 576	 hard	 left	 1	 6.798
tex	 3	 29	 23	 991	 609	 hard	 left	 1	 6.798
tex	 3	 29	 24	 1288	 548	 hard	 left	 1	 6.798
tex	 3	 29	 25	 1387	 533	 hard	 left	 1	 6.798
tex	 3	 29	 26	 1419	 539	 hard	 left	 1	 6.798
tex	 3	 30	 1	 960	 548	 easy	 right	 1	 0.617
tex	 3	 30	 2	 1023	 565	 easy	 right	 1	 0.617
tex	 3	 31	 1	 955	 556	 easy	 left	 1	 1.611
tex	 3	 31	 2	 733	 579	 easy	 left	 1	 1.611
tex	 3	 31	 3	 1261	 607	 easy	 left	 1	 1.611
tex	 3	 31	 4	 1292	 630	 easy	 left	 1	 1.611
tex	 3	 31	 5	 1435	 638	 easy	 left	 1	 1.611
tex	 3	 31	 6	 1034	 459	 easy	 left	 1	 1.611
tex	 3	 32	 1	 948	 554	 hard	 right	 1	 1.231
tex	 3	 32	 2	 963	 526	 hard	 right	 1	 1.231
tex	 3	 32	 3	 1255	 533	 hard	 right	 1	 1.231
tex	 3	 32	 4	 1448	 515	 hard	 right	 1	 1.231
tex	 3	 32	 5	 666	 527	 hard	 right	 1	 1.231
tex	 3	 33	 1	 958	 540	 hard	 left	 1	 1.330
tex	 3	 33	 2	 993	 525	 hard	 left	 1	 1.330
tex	 3	 33	 3	 1162	 590	 hard	 left	 1	 1.330
tex	 3	 33	 4	 731	 562	 hard	 left	 1	 1.330
tex	 3	 33	 5	 531	 580	 hard	 left	 1	 1.330
tex	 3	 33	 6	 479	 570	 hard	 left	 1	 1.330
tex	 3	 34	 1	 960	 505	 hard	 right	 1	 1.038
tex	 3	 34	 2	 815	 515	 hard	 right	 1	 1.038
tex	 3	 34	 3	 1313	 608	 hard	 right	 1	 1.038
tex	 3	 34	 4	 1136	 644	 hard	 right	 1	 1.038
tex	 3	 35	 1	 980	 519	 hard	 right	 1	 1.114
tex	 3	 35	 2	 1092	 532	 hard	 right	 1	 1.114
tex	 3	 35	 3	 1184	 611	 hard	 right	 1	 1.114
tex	 3	 35	 4	 1296	 501	 hard	 right	 1	 1.114
tex	 3	 35	 5	 1085	 571	 hard	 right	 1	 1.114
tex	 3	 35	 6	 1076	 707	 hard	 right	 1	 1.114
tex	 3	 36	 1	 972	 539	 hard	 right	 1	 1.042
tex	 3	 36	 2	 1000	 534	 hard	 right	 1	 1.042
tex	 3	 36	 3	 1264	 580	 hard	 right	 1	 1.042
tex	 3	 36	 4	 824	 587	 hard	 right	 1	 1.042
tex	 3	 36	 5	 1196	 960	 hard	 right	 1	 1.042
tex	 3	 37	 1	 979	 526	 easy	 right	 1	 0.906
tex	 3	 37	 2	 1302	 558	 easy	 right	 1	 0.906
tex	 3	 37	 3	 919	 468	 easy	 right	 1	 0.906
tex	 3	 38	 1	 996	 535	 easy	 right	 1	 0.953
tex	 3	 38	 2	 809	 467	 easy	 right	 1	 0.953
tex	 3	 38	 3	 732	 385	 easy	 right	 1	 0.953
tex	 3	 38	 4	 664	 547	 easy	 right	 1	 0.953
tex	 3	 39	 1	 972	 523	 hard	 left	 1	 1.123
tex	 3	 39	 2	 1171	 456	 hard	 left	 1	 1.123
tex	 3	 39	 3	 1180	 518	 hard	 left	 1	 1.123
tex	 3	 39	 4	 1147	 462	 hard	 left	 1	 1.123
tex	 3	 40	 1	 966	 534	 hard	 right	 0	 0.669
tex	 3	 40	 2	 1327	 561	 hard	 right	 0	 0.669
tex	 3	 40	 3	 788	 600	 hard	 right	 0	 0.669
tex	 3	 41	 1	 966	 554	 easy	 left	 1	 0.596
tex	 3	 41	 2	 708	 560	 easy	 left	 1	 0.596
tex	 3	 41	 3	 690	 575	 easy	 left	 1	 0.596
tex	 3	 42	 1	 948	 537	 hard	 right	 1	 0.631
tex	 3	 42	 2	 876	 534	 hard	 right	 1	 0.631
tex	 3	 42	 3	 788	 395	 hard	 right	 1	 0.631
tex	 3	 42	 4	 767	 381	 hard	 right	 1	 0.631
tex	 3	 43	 1	 949	 541	 hard	 left	 1	 0.838
tex	 3	 43	 2	 836	 535	 hard	 left	 1	 0.838
tex	 3	 43	 3	 722	 669	 hard	 left	 1	 0.838
tex	 3	 44	 1	 976	 556	 hard	 right	 0	 0.616
tex	 3	 44	 2	 1009	 518	 hard	 right	 0	 0.616
tex	 3	 44	 3	 1138	 451	 hard	 right	 0	 0.616
tex	 3	 44	 4	 1150	 424	 hard	 right	 0	 0.616
tex	 3	 45	 1	 996	 557	 easy	 left	 0	 0.700
tex	 3	 45	 2	 952	 565	 easy	 left	 0	 0.700
tex	 3	 45	 3	 864	 509	 easy	 left	 0	 0.700
tex	 3	 45	 4	 1286	 845	 easy	 left	 0	 0.700
tex	 3	 46	 1	 1021	 502	 easy	 right	 1	 0.604
tex	 3	 46	 2	 1047	 728	 easy	 right	 1	 0.604
tex	 3	 46	 3	 1053	 826	 easy	 right	 1	 0.604
tex	 3	 47	 1	 962	 558	 hard	 left	 1	 0.849
tex	 3	 47	 2	 1006	 560	 hard	 left	 1	 0.849
tex	 3	 47	 3	 877	 688	 hard	 left	 1	 0.849
tex	 3	 47	 4	 780	 731	 hard	 left	 1	 0.849
tex	 3	 48	 1	 970	 534	 easy	 left	 1	 1.077
tex	 3	 48	 2	 917	 537	 easy	 left	 1	 1.077
tex	 3	 48	 3	 1250	 605	 easy	 left	 1	 1.077
tex	 3	 48	 4	 1452	 626	 easy	 left	 1	 1.077
tex	 3	 48	 5	 895	 587	 easy	 left	 1	 1.077
tex	 3	 49	 1	 976	 549	 easy	 left	 0	 1.220
tex	 3	 49	 2	 974	 518	 easy	 left	 0	 1.220
tex	 3	 49	 3	 1205	 530	 easy	 left	 0	 1.220
tex	 3	 49	 4	 752	 550	 easy	 left	 0	 1.220
tex	 3	 49	 5	 680	 567	 easy	 left	 0	 1.220
tex	 3	 49	 6	 1391	 531	 easy	 left	 0	 1.220
tex	 3	 50	 1	 955	 586	 hard	 right	 1	 0.820
tex	 3	 50	 2	 957	 543	 hard	 right	 1	 0.820
