"condition","subj","trialNum","fixNo","xFix","xFixFlip","yFix","targSide","easySide","accuracy","RT","targetPre","trialType"
"1","tex",1,17,1,948,-12,553," hard"," right",1,1.401,"present","half"
"2","tex",1,17,2,862,-98,561," hard"," right",1,1.401,"present","half"
"3","tex",1,17,3,613,-347,488," hard"," right",1,1.401,"present","half"
"4","tex",1,17,4,617,-343,433," hard"," right",1,1.401,"present","half"
"5","tex",1,18,1,959,-1,553," hard"," right",1,2.495,"present","half"
"6","tex",1,18,2,835,-125,530," hard"," right",1,2.495,"present","half"
"7","tex",1,18,3,521,-439,582," hard"," right",1,2.495,"present","half"
"8","tex",1,18,4,803,-157,636," hard"," right",1,2.495,"present","half"
"9","tex",1,18,5,873,-87,741," hard"," right",1,2.495,"present","half"
"10","tex",1,18,6,766,-194,695," hard"," right",1,2.495,"present","half"
"11","tex",1,18,7,853,-107,705," hard"," right",1,2.495,"present","half"
"12","tex",1,18,8,832,-128,763," hard"," right",1,2.495,"present","half"
"13","tex",1,18,9,779,-181,749," hard"," right",1,2.495,"present","half"
"14","tex",1,19,1,940,-20,550," easy"," right",1,0.892,"present","half"
"15","tex",1,19,2,898,-62,573," easy"," right",1,0.892,"present","half"
"16","tex",1,19,3,1202,242,325," easy"," right",1,0.892,"present","half"
"17","tex",1,19,4,1219,259,302," easy"," right",1,0.892,"present","half"
"18","tex",1,20,1,962,2,533," hard"," right",1,2.508,"present","half"
"19","tex",1,20,2,896,-64,552," hard"," right",1,2.508,"present","half"
"20","tex",1,20,3,1085,125,408," hard"," right",1,2.508,"present","half"
"21","tex",1,20,4,977,17,426," hard"," right",1,2.508,"present","half"
"22","tex",1,20,5,1195,235,500," hard"," right",1,2.508,"present","half"
"23","tex",1,20,6,819,-141,647," hard"," right",1,2.508,"present","half"
"24","tex",1,20,7,681,-279,688," hard"," right",1,2.508,"present","half"
"25","tex",1,20,8,554,-406,493," hard"," right",1,2.508,"present","half"
"26","tex",1,20,9,736,-224,709," hard"," right",1,2.508,"present","half"
"27","tex",1,20,10,519,-441,553," hard"," right",1,2.508,"present","half"
"28","tex",1,20,11,516,-444,611," hard"," right",1,2.508,"present","half"
"29","tex",1,20,12,522,-438,589," hard"," right",1,2.508,"present","half"
"30","tex",1,21,1,950,-10,559," hard"," right",1,2.017,"present","half"
"31","tex",1,21,2,858,-102,535," hard"," right",1,2.017,"present","half"
"32","tex",1,21,3,898,-62,595," hard"," right",1,2.017,"present","half"
"33","tex",1,21,4,942,-18,461," hard"," right",1,2.017,"present","half"
"34","tex",1,21,5,523,-437,399," hard"," right",1,2.017,"present","half"
"35","tex",1,21,6,635,-325,602," hard"," right",1,2.017,"present","half"
"36","tex",1,21,7,584,-376,682," hard"," right",1,2.017,"present","half"
"37","tex",1,21,8,522,-438,735," hard"," right",1,2.017,"present","half"
"38","tex",1,21,9,519,-441,721," hard"," right",1,2.017,"present","half"
"39","tex",1,22,1,942,18,542," easy"," left",1,0.664,"present","half"
"40","tex",1,22,2,872,88,627," easy"," left",1,0.664,"present","half"
"41","tex",1,22,3,882,78,625," easy"," left",1,0.664,"present","half"
"42","tex",1,23,1,943,17,544,"absent"," left",1,4.11,"absent","half"
"43","tex",1,23,2,1133,-173,618,"absent"," left",1,4.11,"absent","half"
"44","tex",1,23,3,1086,-126,343,"absent"," left",1,4.11,"absent","half"
"45","tex",1,23,4,1243,-283,617,"absent"," left",1,4.11,"absent","half"
"46","tex",1,23,5,1075,-115,814,"absent"," left",1,4.11,"absent","half"
"47","tex",1,23,6,541,419,801,"absent"," left",1,4.11,"absent","half"
"48","tex",1,23,7,1103,-143,789,"absent"," left",1,4.11,"absent","half"
"49","tex",1,23,8,1065,-105,757,"absent"," left",1,4.11,"absent","half"
"50","tex",1,23,9,1045,-85,837,"absent"," left",1,4.11,"absent","half"
"51","tex",1,23,10,1287,-327,912,"absent"," left",1,4.11,"absent","half"
"52","tex",1,23,11,1116,-156,527,"absent"," left",1,4.11,"absent","half"
"53","tex",1,23,12,1067,-107,547,"absent"," left",1,4.11,"absent","half"
"54","tex",1,23,13,1392,-432,239,"absent"," left",1,4.11,"absent","half"
"55","tex",1,23,14,1285,-325,282,"absent"," left",1,4.11,"absent","half"
"56","tex",1,23,15,1048,-88,310,"absent"," left",1,4.11,"absent","half"
"57","tex",1,23,16,987,-27,359,"absent"," left",1,4.11,"absent","half"
"58","tex",1,24,1,936,24,539," easy"," left",1,1.049,"present","half"
"59","tex",1,24,2,684,276,463," easy"," left",1,1.049,"present","half"
"60","tex",1,24,3,560,400,358," easy"," left",1,1.049,"present","half"
"61","tex",1,25,1,744,-216,447,"absent"," right",1,3.49,"absent","half"
"62","tex",1,25,2,668,-292,492,"absent"," right",1,3.49,"absent","half"
"63","tex",1,25,3,560,-400,414,"absent"," right",1,3.49,"absent","half"
"64","tex",1,25,4,876,-84,559,"absent"," right",1,3.49,"absent","half"
"65","tex",1,25,5,1035,75,711,"absent"," right",1,3.49,"absent","half"
"66","tex",1,25,6,660,-300,700,"absent"," right",1,3.49,"absent","half"
"67","tex",1,25,7,873,-87,908,"absent"," right",1,3.49,"absent","half"
"68","tex",1,25,8,1352,392,944,"absent"," right",1,3.49,"absent","half"
"69","tex",1,25,9,1186,226,342,"absent"," right",1,3.49,"absent","half"
"70","tex",1,25,10,1270,310,685,"absent"," right",1,3.49,"absent","half"
"71","tex",1,25,11,1371,411,847,"absent"," right",1,3.49,"absent","half"
"72","tex",1,25,12,1347,387,783,"absent"," right",1,3.49,"absent","half"
"73","tex",1,25,13,566,-394,261,"absent"," right",1,3.49,"absent","half"
"74","tex",1,25,14,580,-380,381,"absent"," right",1,3.49,"absent","half"
"75","tex",1,26,1,950,10,546," hard"," left",1,0.611,"present","half"
"76","tex",1,26,2,895,65,537," hard"," left",1,0.611,"present","half"
"77","tex",1,26,3,1073,-113,596," hard"," left",1,0.611,"present","half"
"78","tex",1,26,4,1032,-72,595," hard"," left",1,0.611,"present","half"
"79","tex",1,27,1,935,-25,545,"absent"," right",0,3.963,"absent","half"
"80","tex",1,27,2,899,-61,586,"absent"," right",0,3.963,"absent","half"
"81","tex",1,27,3,1024,64,588,"absent"," right",0,3.963,"absent","half"
"82","tex",1,27,4,596,-364,478,"absent"," right",0,3.963,"absent","half"
"83","tex",1,27,5,554,-406,325,"absent"," right",0,3.963,"absent","half"
"84","tex",1,27,6,874,-86,873,"absent"," right",0,3.963,"absent","half"
"85","tex",1,27,7,674,-286,911,"absent"," right",0,3.963,"absent","half"
"86","tex",1,27,8,927,-33,935,"absent"," right",0,3.963,"absent","half"
"87","tex",1,27,9,1304,344,899,"absent"," right",0,3.963,"absent","half"
"88","tex",1,27,10,1393,433,571,"absent"," right",0,3.963,"absent","half"
"89","tex",1,27,11,1203,243,533,"absent"," right",0,3.963,"absent","half"
"90","tex",1,27,12,1128,168,558,"absent"," right",0,3.963,"absent","half"
"91","tex",1,27,13,1111,151,697,"absent"," right",0,3.963,"absent","half"
"92","tex",1,27,14,1124,164,670,"absent"," right",0,3.963,"absent","half"
"93","tex",1,28,1,957,3,541," hard"," left",1,1.858,"present","half"
"94","tex",1,28,2,914,46,532," hard"," left",1,1.858,"present","half"
"95","tex",1,28,3,976,-16,597," hard"," left",1,1.858,"present","half"
"96","tex",1,28,4,654,306,417," hard"," left",1,1.858,"present","half"
"97","tex",1,28,5,1047,-87,474," hard"," left",1,1.858,"present","half"
"98","tex",1,28,6,1014,-54,492," hard"," left",1,1.858,"present","half"
"99","tex",1,28,7,1366,-406,499," hard"," left",1,1.858,"present","half"
"100","tex",1,28,8,1368,-408,484," hard"," left",1,1.858,"present","half"
"101","tex",1,29,1,948,12,543,"absent"," left",1,5.725,"absent","half"
"102","tex",1,29,2,1103,-143,519,"absent"," left",1,5.725,"absent","half"
"103","tex",1,29,3,1004,-44,518,"absent"," left",1,5.725,"absent","half"
"104","tex",1,29,4,976,-16,482,"absent"," left",1,5.725,"absent","half"
"105","tex",1,29,5,524,436,517,"absent"," left",1,5.725,"absent","half"
"106","tex",1,29,6,506,454,603,"absent"," left",1,5.725,"absent","half"
"107","tex",1,29,7,454,506,921,"absent"," left",1,5.725,"absent","half"
"108","tex",1,29,8,461,499,895,"absent"," left",1,5.725,"absent","half"
"109","tex",1,29,9,842,118,920,"absent"," left",1,5.725,"absent","half"
"110","tex",1,29,10,798,162,916,"absent"," left",1,5.725,"absent","half"
"111","tex",1,29,11,1043,-83,876,"absent"," left",1,5.725,"absent","half"
"112","tex",1,29,12,977,-17,847,"absent"," left",1,5.725,"absent","half"
"113","tex",1,29,13,1262,-302,953,"absent"," left",1,5.725,"absent","half"
"114","tex",1,29,14,1217,-257,936,"absent"," left",1,5.725,"absent","half"
"115","tex",1,29,15,1091,-131,953,"absent"," left",1,5.725,"absent","half"
"116","tex",1,29,16,1274,-314,737,"absent"," left",1,5.725,"absent","half"
"117","tex",1,29,17,1207,-247,723,"absent"," left",1,5.725,"absent","half"
"118","tex",1,29,18,1338,-378,614,"absent"," left",1,5.725,"absent","half"
"119","tex",1,29,19,1099,-139,441,"absent"," left",1,5.725,"absent","half"
"120","tex",1,29,20,1105,-145,294,"absent"," left",1,5.725,"absent","half"
"121","tex",1,29,21,623,337,262,"absent"," left",1,5.725,"absent","half"
"122","tex",1,29,22,532,428,295,"absent"," left",1,5.725,"absent","half"
"123","tex",1,29,23,932,28,238,"absent"," left",1,5.725,"absent","half"
"124","tex",1,29,24,808,152,206,"absent"," left",1,5.725,"absent","half"
"125","tex",1,30,1,955,-5,536," easy"," right",1,0.621,"present","half"
"126","tex",1,30,2,903,-57,522," easy"," right",1,0.621,"present","half"
"127","tex",1,30,3,1019,59,576," easy"," right",1,0.621,"present","half"
"128","tex",1,30,4,1016,56,563," easy"," right",1,0.621,"present","half"
"129","tex",1,31,1,953,7,527,"absent"," left",1,6.032,"absent","half"
"130","tex",1,31,2,1026,-66,494,"absent"," left",1,6.032,"absent","half"
"131","tex",1,31,3,840,120,534,"absent"," left",1,6.032,"absent","half"
"132","tex",1,31,4,749,211,663,"absent"," left",1,6.032,"absent","half"
"133","tex",1,31,5,535,425,594,"absent"," left",1,6.032,"absent","half"
"134","tex",1,31,6,1008,-48,677,"absent"," left",1,6.032,"absent","half"
"135","tex",1,31,7,1273,-313,670,"absent"," left",1,6.032,"absent","half"
"136","tex",1,31,8,1441,-481,677,"absent"," left",1,6.032,"absent","half"
"137","tex",1,31,9,1473,-513,641,"absent"," left",1,6.032,"absent","half"
"138","tex",1,31,10,1026,-66,308,"absent"," left",1,6.032,"absent","half"
"139","tex",1,31,11,1013,-53,386,"absent"," left",1,6.032,"absent","half"
"140","tex",1,31,12,1024,-64,570,"absent"," left",1,6.032,"absent","half"
"141","tex",1,31,13,710,250,818,"absent"," left",1,6.032,"absent","half"
"142","tex",1,31,14,566,394,848,"absent"," left",1,6.032,"absent","half"
"143","tex",1,31,15,547,413,844,"absent"," left",1,6.032,"absent","half"
"144","tex",1,31,16,1056,-96,922,"absent"," left",1,6.032,"absent","half"
"145","tex",1,31,17,1174,-214,899,"absent"," left",1,6.032,"absent","half"
"146","tex",1,31,18,1306,-346,833,"absent"," left",1,6.032,"absent","half"
"147","tex",1,31,19,1300,-340,311,"absent"," left",1,6.032,"absent","half"
"148","tex",1,31,20,740,220,196,"absent"," left",1,6.032,"absent","half"
"149","tex",1,31,21,1097,-137,196,"absent"," left",1,6.032,"absent","half"
"150","tex",1,31,22,1073,-113,196,"absent"," left",1,6.032,"absent","half"
"151","tex",1,31,23,971,-11,267,"absent"," left",1,6.032,"absent","half"
"152","tex",1,32,1,954,-6,537,"absent"," right",1,8.461,"absent","half"
"153","tex",1,32,2,857,-103,606,"absent"," right",1,8.461,"absent","half"
"154","tex",1,32,3,1120,160,766,"absent"," right",1,8.461,"absent","half"
"155","tex",1,32,4,973,13,741,"absent"," right",1,8.461,"absent","half"
"156","tex",1,32,5,514,-446,590,"absent"," right",1,8.461,"absent","half"
"157","tex",1,32,6,594,-366,643,"absent"," right",1,8.461,"absent","half"
"158","tex",1,32,7,539,-421,639,"absent"," right",1,8.461,"absent","half"
"159","tex",1,32,8,462,-498,399,"absent"," right",1,8.461,"absent","half"
"160","tex",1,32,9,933,-27,286,"absent"," right",1,8.461,"absent","half"
"161","tex",1,32,10,828,-132,271,"absent"," right",1,8.461,"absent","half"
"162","tex",1,32,11,756,-204,376,"absent"," right",1,8.461,"absent","half"
"163","tex",1,32,12,515,-445,300,"absent"," right",1,8.461,"absent","half"
"164","tex",1,32,13,545,-415,356,"absent"," right",1,8.461,"absent","half"
"165","tex",1,32,14,707,-253,564,"absent"," right",1,8.461,"absent","half"
"166","tex",1,32,15,678,-282,556,"absent"," right",1,8.461,"absent","half"
"167","tex",1,32,16,888,-72,700,"absent"," right",1,8.461,"absent","half"
"168","tex",1,32,17,1119,159,800,"absent"," right",1,8.461,"absent","half"
"169","tex",1,32,18,841,-119,870,"absent"," right",1,8.461,"absent","half"
"170","tex",1,32,19,654,-306,893,"absent"," right",1,8.461,"absent","half"
"171","tex",1,32,20,1386,426,927,"absent"," right",1,8.461,"absent","half"
"172","tex",1,32,21,1406,446,513,"absent"," right",1,8.461,"absent","half"
"173","tex",1,32,22,1250,290,474,"absent"," right",1,8.461,"absent","half"
"174","tex",1,32,23,1004,44,265,"absent"," right",1,8.461,"absent","half"
"175","tex",1,32,24,1062,102,343,"absent"," right",1,8.461,"absent","half"
"176","tex",1,32,25,599,-361,259,"absent"," right",1,8.461,"absent","half"
"177","tex",1,32,26,752,-208,349,"absent"," right",1,8.461,"absent","half"
"178","tex",1,32,27,889,-71,493,"absent"," right",1,8.461,"absent","half"
"179","tex",1,32,28,852,-108,460,"absent"," right",1,8.461,"absent","half"
"180","tex",1,32,29,1204,244,451,"absent"," right",1,8.461,"absent","half"
"181","tex",1,32,30,1111,151,461,"absent"," right",1,8.461,"absent","half"
"182","tex",1,32,31,959,-1,783,"absent"," right",1,8.461,"absent","half"
"183","tex",1,32,32,597,-363,907,"absent"," right",1,8.461,"absent","half"
"184","tex",1,32,33,857,-103,941,"absent"," right",1,8.461,"absent","half"
"185","tex",1,33,1,956,4,562,"absent"," left",1,4.466,"absent","half"
"186","tex",1,33,2,1051,-91,448,"absent"," left",1,4.466,"absent","half"
"187","tex",1,33,3,1086,-126,316,"absent"," left",1,4.466,"absent","half"
"188","tex",1,33,4,492,468,585,"absent"," left",1,4.466,"absent","half"
"189","tex",1,33,5,443,517,532,"absent"," left",1,4.466,"absent","half"
"190","tex",1,33,6,963,-3,728,"absent"," left",1,4.466,"absent","half"
"191","tex",1,33,7,1167,-207,919,"absent"," left",1,4.466,"absent","half"
"192","tex",1,33,8,1164,-204,785,"absent"," left",1,4.466,"absent","half"
"193","tex",1,33,9,1095,-135,691,"absent"," left",1,4.466,"absent","half"
"194","tex",1,33,10,1035,-75,673,"absent"," left",1,4.466,"absent","half"
"195","tex",1,33,11,1042,-82,699,"absent"," left",1,4.466,"absent","half"
"196","tex",1,33,12,499,461,845,"absent"," left",1,4.466,"absent","half"
"197","tex",1,33,13,644,316,910,"absent"," left",1,4.466,"absent","half"
"198","tex",1,33,14,828,132,275,"absent"," left",1,4.466,"absent","half"
"199","tex",1,33,15,735,225,296,"absent"," left",1,4.466,"absent","half"
"200","tex",1,33,16,645,315,258,"absent"," left",1,4.466,"absent","half"
"201","tex",1,33,17,1125,-165,376,"absent"," left",1,4.466,"absent","half"
"202","tex",1,34,1,944,-16,535,"absent"," right",1,4.77,"absent","half"
"203","tex",1,34,2,874,-86,523,"absent"," right",1,4.77,"absent","half"
"204","tex",1,34,3,796,-164,497,"absent"," right",1,4.77,"absent","half"
"205","tex",1,34,4,500,-460,616,"absent"," right",1,4.77,"absent","half"
"206","tex",1,34,5,503,-457,755,"absent"," right",1,4.77,"absent","half"
"207","tex",1,34,6,506,-454,866,"absent"," right",1,4.77,"absent","half"
"208","tex",1,34,7,520,-440,851,"absent"," right",1,4.77,"absent","half"
"209","tex",1,34,8,1001,41,831,"absent"," right",1,4.77,"absent","half"
"210","tex",1,34,9,1293,333,849,"absent"," right",1,4.77,"absent","half"
"211","tex",1,34,10,1448,488,838,"absent"," right",1,4.77,"absent","half"
"212","tex",1,34,11,938,-22,847,"absent"," right",1,4.77,"absent","half"
"213","tex",1,34,12,912,-48,377,"absent"," right",1,4.77,"absent","half"
"214","tex",1,34,13,756,-204,346,"absent"," right",1,4.77,"absent","half"
"215","tex",1,34,14,725,-235,436,"absent"," right",1,4.77,"absent","half"
"216","tex",1,34,15,658,-302,484,"absent"," right",1,4.77,"absent","half"
"217","tex",1,34,16,465,-495,221,"absent"," right",1,4.77,"absent","half"
"218","tex",1,34,17,1205,245,411,"absent"," right",1,4.77,"absent","half"
"219","tex",1,34,18,1099,139,461,"absent"," right",1,4.77,"absent","half"
"220","tex",1,35,1,952,-8,546,"absent"," right",1,4.832,"absent","half"
"221","tex",1,35,2,846,-114,528,"absent"," right",1,4.832,"absent","half"
"222","tex",1,35,3,1026,66,833,"absent"," right",1,4.832,"absent","half"
"223","tex",1,35,4,1099,139,815,"absent"," right",1,4.832,"absent","half"
"224","tex",1,35,5,732,-228,739,"absent"," right",1,4.832,"absent","half"
"225","tex",1,35,6,1023,63,829,"absent"," right",1,4.832,"absent","half"
"226","tex",1,35,7,1053,93,852,"absent"," right",1,4.832,"absent","half"
"227","tex",1,35,8,988,28,774,"absent"," right",1,4.832,"absent","half"
"228","tex",1,35,9,661,-299,753,"absent"," right",1,4.832,"absent","half"
"229","tex",1,35,10,600,-360,442,"absent"," right",1,4.832,"absent","half"
"230","tex",1,35,11,981,21,251,"absent"," right",1,4.832,"absent","half"
"231","tex",1,35,12,939,-21,357,"absent"," right",1,4.832,"absent","half"
"232","tex",1,35,13,909,-51,364,"absent"," right",1,4.832,"absent","half"
"233","tex",1,35,14,879,-81,370,"absent"," right",1,4.832,"absent","half"
"234","tex",1,35,15,584,-376,403,"absent"," right",1,4.832,"absent","half"
"235","tex",1,35,16,650,-310,602,"absent"," right",1,4.832,"absent","half"
"236","tex",1,35,17,557,-403,262,"absent"," right",1,4.832,"absent","half"
"237","tex",1,36,1,953,-7,549,"absent"," right",1,6.29,"absent","half"
"238","tex",1,36,2,817,-143,614,"absent"," right",1,6.29,"absent","half"
"239","tex",1,36,3,560,-400,531,"absent"," right",1,6.29,"absent","half"
"240","tex",1,36,4,844,-116,747,"absent"," right",1,6.29,"absent","half"
"241","tex",1,36,5,1257,297,885,"absent"," right",1,6.29,"absent","half"
"242","tex",1,36,6,1003,43,875,"absent"," right",1,6.29,"absent","half"
"243","tex",1,36,7,870,-90,701,"absent"," right",1,6.29,"absent","half"
"244","tex",1,36,8,707,-253,948,"absent"," right",1,6.29,"absent","half"
"245","tex",1,36,9,479,-481,925,"absent"," right",1,6.29,"absent","half"
"246","tex",1,36,10,854,-106,719,"absent"," right",1,6.29,"absent","half"
"247","tex",1,36,11,770,-190,727,"absent"," right",1,6.29,"absent","half"
"248","tex",1,36,12,1154,194,694,"absent"," right",1,6.29,"absent","half"
"249","tex",1,36,13,1169,209,346,"absent"," right",1,6.29,"absent","half"
"250","tex",1,36,14,1006,46,438,"absent"," right",1,6.29,"absent","half"
"251","tex",1,36,15,775,-185,423,"absent"," right",1,6.29,"absent","half"
"252","tex",1,36,16,822,-138,482,"absent"," right",1,6.29,"absent","half"
"253","tex",1,36,17,638,-322,430,"absent"," right",1,6.29,"absent","half"
"254","tex",1,36,18,570,-390,362,"absent"," right",1,6.29,"absent","half"
"255","tex",1,36,19,531,-429,326,"absent"," right",1,6.29,"absent","half"
"256","tex",1,36,20,488,-472,307,"absent"," right",1,6.29,"absent","half"
"257","tex",1,36,21,762,-198,337,"absent"," right",1,6.29,"absent","half"
"258","tex",1,36,22,670,-290,371,"absent"," right",1,6.29,"absent","half"
"259","tex",1,37,1,922,-38,519,"absent"," right",1,6.47,"absent","half"
"260","tex",1,37,2,841,-119,505,"absent"," right",1,6.47,"absent","half"
"261","tex",1,37,3,564,-396,557,"absent"," right",1,6.47,"absent","half"
"262","tex",1,37,4,610,-350,371,"absent"," right",1,6.47,"absent","half"
"263","tex",1,37,5,577,-383,601,"absent"," right",1,6.47,"absent","half"
"264","tex",1,37,6,1081,121,548,"absent"," right",1,6.47,"absent","half"
"265","tex",1,37,7,970,10,584,"absent"," right",1,6.47,"absent","half"
"266","tex",1,37,8,937,-23,551,"absent"," right",1,6.47,"absent","half"
"267","tex",1,37,9,944,-16,655,"absent"," right",1,6.47,"absent","half"
"268","tex",1,37,10,1077,117,645,"absent"," right",1,6.47,"absent","half"
"269","tex",1,37,11,875,-85,610,"absent"," right",1,6.47,"absent","half"
"270","tex",1,37,12,719,-241,580,"absent"," right",1,6.47,"absent","half"
"271","tex",1,37,13,773,-187,640,"absent"," right",1,6.47,"absent","half"
"272","tex",1,37,14,938,-22,560,"absent"," right",1,6.47,"absent","half"
"273","tex",1,37,15,1281,321,659,"absent"," right",1,6.47,"absent","half"
"274","tex",1,37,16,1146,186,672,"absent"," right",1,6.47,"absent","half"
"275","tex",1,37,17,1047,87,794,"absent"," right",1,6.47,"absent","half"
"276","tex",1,37,18,823,-137,758,"absent"," right",1,6.47,"absent","half"
"277","tex",1,38,1,949,-11,560,"absent"," right",1,5.4,"absent","half"
"278","tex",1,38,2,848,-112,644,"absent"," right",1,5.4,"absent","half"
"279","tex",1,38,3,674,-286,555,"absent"," right",1,5.4,"absent","half"
"280","tex",1,38,4,576,-384,492,"absent"," right",1,5.4,"absent","half"
"281","tex",1,38,5,595,-365,279,"absent"," right",1,5.4,"absent","half"
"282","tex",1,38,6,1040,80,318,"absent"," right",1,5.4,"absent","half"
"283","tex",1,38,7,1158,198,555,"absent"," right",1,5.4,"absent","half"
"284","tex",1,38,8,1210,250,831,"absent"," right",1,5.4,"absent","half"
"285","tex",1,38,9,650,-310,891,"absent"," right",1,5.4,"absent","half"
"286","tex",1,38,10,1283,323,615,"absent"," right",1,5.4,"absent","half"
"287","tex",1,38,11,1240,280,605,"absent"," right",1,5.4,"absent","half"
"288","tex",1,38,12,744,-216,891,"absent"," right",1,5.4,"absent","half"
"289","tex",1,38,13,584,-376,897,"absent"," right",1,5.4,"absent","half"
"290","tex",1,38,14,481,-479,921,"absent"," right",1,5.4,"absent","half"
"291","tex",1,38,15,865,-95,418,"absent"," right",1,5.4,"absent","half"
"292","tex",1,38,16,730,-230,365,"absent"," right",1,5.4,"absent","half"
"293","tex",1,38,17,545,-415,273,"absent"," right",1,5.4,"absent","half"
"294","tex",1,38,18,857,-103,205,"absent"," right",1,5.4,"absent","half"
"295","tex",1,39,1,963,-3,512,"absent"," left",1,4.277,"absent","half"
"296","tex",1,39,2,804,156,525,"absent"," left",1,4.277,"absent","half"
"297","tex",1,39,3,516,444,563,"absent"," left",1,4.277,"absent","half"
"298","tex",1,39,4,1022,-62,594,"absent"," left",1,4.277,"absent","half"
"299","tex",1,39,5,1224,-264,783,"absent"," left",1,4.277,"absent","half"
"300","tex",1,39,6,1156,-196,886,"absent"," left",1,4.277,"absent","half"
"301","tex",1,39,7,1184,-224,923,"absent"," left",1,4.277,"absent","half"
"302","tex",1,39,8,1270,-310,360,"absent"," left",1,4.277,"absent","half"
"303","tex",1,39,9,1117,-157,322,"absent"," left",1,4.277,"absent","half"
"304","tex",1,39,10,1244,-284,426,"absent"," left",1,4.277,"absent","half"
"305","tex",1,39,11,1128,-168,998,"absent"," left",1,4.277,"absent","half"
"306","tex",1,39,12,1126,-166,913,"absent"," left",1,4.277,"absent","half"
"307","tex",1,39,13,1327,-367,939,"absent"," left",1,4.277,"absent","half"
"308","tex",1,39,14,1108,-148,866,"absent"," left",1,4.277,"absent","half"
"309","tex",1,39,15,644,316,380,"absent"," left",1,4.277,"absent","half"
"310","tex",1,39,16,588,372,352,"absent"," left",1,4.277,"absent","half"
"311","tex",1,39,17,544,416,643,"absent"," left",1,4.277,"absent","half"
"312","tex",1,40,1,950,-10,546," hard"," right",1,1.381,"present","half"
"313","tex",1,40,2,956,-4,545," hard"," right",1,1.381,"present","half"
"314","tex",1,40,3,872,-88,549," hard"," right",1,1.381,"present","half"
"315","tex",1,40,4,768,-192,473," hard"," right",1,1.381,"present","half"
"316","tex",1,40,5,507,-453,550," hard"," right",1,1.381,"present","half"
"317","tex",1,41,1,726,234,588," easy"," left",1,0.687,"present","half"
"318","tex",1,41,2,669,291,561," easy"," left",1,0.687,"present","half"
"319","tex",1,42,1,637,-323,563," hard"," right",1,0.904,"present","half"
"320","tex",1,42,2,743,-217,572," hard"," right",1,0.904,"present","half"
"321","tex",1,42,3,785,-175,369," hard"," right",1,0.904,"present","half"
"322","tex",1,42,4,765,-195,352," hard"," right",1,0.904,"present","half"
"323","tex",1,43,1,751,209,484,"absent"," left",1,4.66,"absent","half"
"324","tex",1,43,2,965,-5,501,"absent"," left",1,4.66,"absent","half"
"325","tex",1,43,3,1221,-261,521,"absent"," left",1,4.66,"absent","half"
"326","tex",1,43,4,1222,-262,471,"absent"," left",1,4.66,"absent","half"
"327","tex",1,43,5,1290,-330,794,"absent"," left",1,4.66,"absent","half"
"328","tex",1,43,6,1270,-310,723,"absent"," left",1,4.66,"absent","half"
"329","tex",1,43,7,1366,-406,964,"absent"," left",1,4.66,"absent","half"
"330","tex",1,43,8,1379,-419,945,"absent"," left",1,4.66,"absent","half"
"331","tex",1,43,9,592,368,913,"absent"," left",1,4.66,"absent","half"
"332","tex",1,43,10,452,508,913,"absent"," left",1,4.66,"absent","half"
"333","tex",1,43,11,579,381,404,"absent"," left",1,4.66,"absent","half"
"334","tex",1,43,12,749,211,578,"absent"," left",1,4.66,"absent","half"
"335","tex",1,43,13,552,408,470,"absent"," left",1,4.66,"absent","half"
"336","tex",1,43,14,469,491,454,"absent"," left",1,4.66,"absent","half"
"337","tex",1,43,15,1214,-254,292,"absent"," left",1,4.66,"absent","half"
"338","tex",1,43,16,1070,-110,277,"absent"," left",1,4.66,"absent","half"
"339","tex",1,43,17,1054,-94,296,"absent"," left",1,4.66,"absent","half"
"340","tex",1,44,1,948,-12,540,"absent"," right",1,3.62,"absent","half"
"341","tex",1,44,2,965,5,527,"absent"," right",1,3.62,"absent","half"
"342","tex",1,44,3,816,-144,607,"absent"," right",1,3.62,"absent","half"
"343","tex",1,44,4,497,-463,494,"absent"," right",1,3.62,"absent","half"
"344","tex",1,44,5,717,-243,797,"absent"," right",1,3.62,"absent","half"
"345","tex",1,44,6,1108,148,914,"absent"," right",1,3.62,"absent","half"
"346","tex",1,44,7,1192,232,889,"absent"," right",1,3.62,"absent","half"
"347","tex",1,44,8,1253,293,437,"absent"," right",1,3.62,"absent","half"
"348","tex",1,44,9,1089,129,361,"absent"," right",1,3.62,"absent","half"
"349","tex",1,44,10,796,-164,330,"absent"," right",1,3.62,"absent","half"
"350","tex",1,44,11,779,-181,542,"absent"," right",1,3.62,"absent","half"
"351","tex",1,44,12,801,-159,593,"absent"," right",1,3.62,"absent","half"
"352","tex",1,45,1,954,6,547,"absent"," left",1,3.573,"absent","half"
"353","tex",1,45,2,835,125,467,"absent"," left",1,3.573,"absent","half"
"354","tex",1,45,3,814,146,445,"absent"," left",1,3.573,"absent","half"
"355","tex",1,45,4,1110,-150,408,"absent"," left",1,3.573,"absent","half"
"356","tex",1,45,5,1026,-66,472,"absent"," left",1,3.573,"absent","half"
"357","tex",1,45,6,1391,-431,362,"absent"," left",1,3.573,"absent","half"
"358","tex",1,45,7,1421,-461,859,"absent"," left",1,3.573,"absent","half"
"359","tex",1,45,8,966,-6,836,"absent"," left",1,3.573,"absent","half"
"360","tex",1,45,9,949,11,672,"absent"," left",1,3.573,"absent","half"
"361","tex",1,45,10,1018,-58,551,"absent"," left",1,3.573,"absent","half"
"362","tex",1,45,11,617,343,578,"absent"," left",1,3.573,"absent","half"
"363","tex",1,45,12,1020,-60,697,"absent"," left",1,3.573,"absent","half"
"364","tex",1,45,13,637,323,202,"absent"," left",1,3.573,"absent","half"
"365","tex",1,45,14,942,18,150,"absent"," left",1,3.573,"absent","half"
"366","tex",1,46,1,948,-12,541," easy"," right",1,0.655,"present","half"
"367","tex",1,46,2,900,-60,531," easy"," right",1,0.655,"present","half"
"368","tex",1,46,3,994,34,774," easy"," right",1,0.655,"present","half"
"369","tex",1,46,4,1057,97,814," easy"," right",1,0.655,"present","half"
"370","tex",1,47,1,939,21,534," hard"," left",1,1.462,"present","half"
"371","tex",1,47,2,1026,-66,688," hard"," left",1,1.462,"present","half"
"372","tex",1,47,3,534,426,619," hard"," left",1,1.462,"present","half"
"373","tex",1,47,4,804,156,852," hard"," left",1,1.462,"present","half"
"374","tex",1,47,5,1076,-116,863," hard"," left",1,1.462,"present","half"
"375","tex",1,47,6,1097,-137,854," hard"," left",1,1.462,"present","half"
"376","tex",1,48,1,956,4,562,"absent"," left",1,4.208,"absent","half"
"377","tex",1,48,2,1044,-84,769,"absent"," left",1,4.208,"absent","half"
"378","tex",1,48,3,1178,-218,779,"absent"," left",1,4.208,"absent","half"
"379","tex",1,48,4,1117,-157,358,"absent"," left",1,4.208,"absent","half"
"380","tex",1,48,5,1089,-129,511,"absent"," left",1,4.208,"absent","half"
"381","tex",1,48,6,1412,-452,648,"absent"," left",1,4.208,"absent","half"
"382","tex",1,48,7,1277,-317,679,"absent"," left",1,4.208,"absent","half"
"383","tex",1,48,8,607,353,741,"absent"," left",1,4.208,"absent","half"
"384","tex",1,48,9,504,456,651,"absent"," left",1,4.208,"absent","half"
"385","tex",1,48,10,660,300,302,"absent"," left",1,4.208,"absent","half"
"386","tex",1,48,11,908,52,370,"absent"," left",1,4.208,"absent","half"
"387","tex",1,48,12,513,447,200,"absent"," left",1,4.208,"absent","half"
"388","tex",1,48,13,995,-35,330,"absent"," left",1,4.208,"absent","half"
"389","tex",1,48,14,1298,-338,314,"absent"," left",1,4.208,"absent","half"
"390","tex",1,48,15,1006,-46,428,"absent"," left",1,4.208,"absent","half"
"391","tex",1,48,16,1090,-130,426,"absent"," left",1,4.208,"absent","half"
"392","tex",1,49,1,948,12,518,"absent"," left",0,0.013,"absent","half"
"393","tex",1,50,1,952,-8,516,"absent"," right",1,5.479,"absent","half"
"394","tex",1,50,2,879,-81,546,"absent"," right",1,5.479,"absent","half"
"395","tex",1,50,3,529,-431,675,"absent"," right",1,5.479,"absent","half"
"396","tex",1,50,4,721,-239,475,"absent"," right",1,5.479,"absent","half"
"397","tex",1,50,5,804,-156,425,"absent"," right",1,5.479,"absent","half"
"398","tex",1,50,6,898,-62,369,"absent"," right",1,5.479,"absent","half"
"399","tex",1,50,7,796,-164,449,"absent"," right",1,5.479,"absent","half"
"400","tex",1,50,8,809,-151,431,"absent"," right",1,5.479,"absent","half"
"401","tex",1,50,9,659,-301,489,"absent"," right",1,5.479,"absent","half"
"402","tex",1,50,10,815,-145,425,"absent"," right",1,5.479,"absent","half"
"403","tex",1,50,11,650,-310,500,"absent"," right",1,5.479,"absent","half"
"404","tex",1,50,12,1082,122,619,"absent"," right",1,5.479,"absent","half"
"405","tex",1,50,13,969,9,642,"absent"," right",1,5.479,"absent","half"
"406","tex",1,50,14,1275,315,882,"absent"," right",1,5.479,"absent","half"
"407","tex",1,50,15,966,6,889,"absent"," right",1,5.479,"absent","half"
"408","tex",1,50,16,616,-344,880,"absent"," right",1,5.479,"absent","half"
"409","tex",1,50,17,511,-449,839,"absent"," right",1,5.479,"absent","half"
"410","tex",1,50,18,461,-499,706,"absent"," right",1,5.479,"absent","half"
"411","tex",1,50,19,495,-465,402,"absent"," right",1,5.479,"absent","half"
"412","tex",1,50,20,559,-401,222,"absent"," right",1,5.479,"absent","half"
"413","tex",1,50,21,468,-492,306,"absent"," right",1,5.479,"absent","half"
"414","tex",1,50,22,809,-151,327,"absent"," right",1,5.479,"absent","half"
"415","tex",1,51,1,938,22,533," hard"," left",1,0.935,"present","half"
"416","tex",1,51,2,829,131,580," hard"," left",1,0.935,"present","half"
"417","tex",1,51,3,1016,-56,673," hard"," left",1,0.935,"present","half"
"418","tex",1,51,4,1076,-116,769," hard"," left",1,0.935,"present","half"
"419","tex",1,51,5,1070,-110,749," hard"," left",1,0.935,"present","half"
"420","tex",1,52,1,945,15,566,"absent"," left",1,2.435,"absent","half"
"421","tex",1,52,2,951,9,612,"absent"," left",1,2.435,"absent","half"
"422","tex",1,52,3,1007,-47,659,"absent"," left",1,2.435,"absent","half"
"423","tex",1,52,4,738,222,480,"absent"," left",1,2.435,"absent","half"
"424","tex",1,52,5,1115,-155,784,"absent"," left",1,2.435,"absent","half"
"425","tex",1,52,6,922,38,739,"absent"," left",1,2.435,"absent","half"
"426","tex",1,52,7,823,137,689,"absent"," left",1,2.435,"absent","half"
"427","tex",1,52,8,668,292,640,"absent"," left",1,2.435,"absent","half"
"428","tex",1,52,9,1003,-43,808,"absent"," left",1,2.435,"absent","half"
"429","tex",1,52,10,1258,-298,683,"absent"," left",1,2.435,"absent","half"
"430","tex",1,52,11,1146,-186,635,"absent"," left",1,2.435,"absent","half"
"431","tex",1,52,12,1099,-139,446,"absent"," left",1,2.435,"absent","half"
"432","tex",1,53,1,879,81,542,"absent"," left",1,4.096,"absent","half"
"433","tex",1,53,2,932,28,533,"absent"," left",1,4.096,"absent","half"
"434","tex",1,53,3,1037,-77,578,"absent"," left",1,4.096,"absent","half"
"435","tex",1,53,4,1015,-55,708,"absent"," left",1,4.096,"absent","half"
"436","tex",1,53,5,1055,-95,755,"absent"," left",1,4.096,"absent","half"
"437","tex",1,53,6,1322,-362,255,"absent"," left",1,4.096,"absent","half"
"438","tex",1,53,7,1410,-450,916,"absent"," left",1,4.096,"absent","half"
"439","tex",1,53,8,1310,-350,840,"absent"," left",1,4.096,"absent","half"
"440","tex",1,53,9,587,373,772,"absent"," left",1,4.096,"absent","half"
"441","tex",1,53,10,466,494,462,"absent"," left",1,4.096,"absent","half"
"442","tex",1,53,11,997,-37,357,"absent"," left",1,4.096,"absent","half"
"443","tex",1,53,12,1014,-54,488,"absent"," left",1,4.096,"absent","half"
"444","tex",1,53,13,1144,-184,308,"absent"," left",1,4.096,"absent","half"
"445","tex",1,53,14,1077,-117,448,"absent"," left",1,4.096,"absent","half"
"446","tex",1,54,1,938,-22,520,"absent"," right",1,3.657,"absent","half"
"447","tex",1,54,2,803,-157,494,"absent"," right",1,3.657,"absent","half"
"448","tex",1,54,3,722,-238,552,"absent"," right",1,3.657,"absent","half"
"449","tex",1,54,4,577,-383,409,"absent"," right",1,3.657,"absent","half"
"450","tex",1,54,5,723,-237,601,"absent"," right",1,3.657,"absent","half"
"451","tex",1,54,6,715,-245,582,"absent"," right",1,3.657,"absent","half"
"452","tex",1,54,7,705,-255,560,"absent"," right",1,3.657,"absent","half"
"453","tex",1,54,8,725,-235,557,"absent"," right",1,3.657,"absent","half"
"454","tex",1,54,9,592,-368,474,"absent"," right",1,3.657,"absent","half"
"455","tex",1,54,10,1013,53,647,"absent"," right",1,3.657,"absent","half"
"456","tex",1,54,11,1300,340,759,"absent"," right",1,3.657,"absent","half"
"457","tex",1,54,12,971,11,773,"absent"," right",1,3.657,"absent","half"
"458","tex",1,54,13,803,-157,780,"absent"," right",1,3.657,"absent","half"
"459","tex",1,54,14,735,-225,500,"absent"," right",1,3.657,"absent","half"
"460","tex",1,55,1,947,13,545," easy"," left",1,0.67,"present","half"
"461","tex",1,55,2,691,269,863," easy"," left",1,0.67,"present","half"
"462","tex",1,55,3,711,249,848," easy"," left",1,0.67,"present","half"
"463","tex",1,56,1,925,-35,553,"absent"," right",1,2.196,"absent","half"
"464","tex",1,56,2,799,-161,606,"absent"," right",1,2.196,"absent","half"
"465","tex",1,56,3,649,-311,560,"absent"," right",1,2.196,"absent","half"
"466","tex",1,56,4,1320,360,505,"absent"," right",1,2.196,"absent","half"
"467","tex",1,56,5,1455,495,507,"absent"," right",1,2.196,"absent","half"
"468","tex",1,56,6,670,-290,610,"absent"," right",1,2.196,"absent","half"
"469","tex",1,56,7,510,-450,563,"absent"," right",1,2.196,"absent","half"
"470","tex",1,56,8,749,-211,471,"absent"," right",1,2.196,"absent","half"
"471","tex",1,56,9,663,-297,469,"absent"," right",1,2.196,"absent","half"
"472","tex",1,56,10,646,-314,550,"absent"," right",1,2.196,"absent","half"
"473","tex",1,57,1,942,18,537,"absent"," left",1,3.391,"absent","half"
"474","tex",1,57,2,1007,-47,495,"absent"," left",1,3.391,"absent","half"
"475","tex",1,57,3,989,-29,681,"absent"," left",1,3.391,"absent","half"
"476","tex",1,57,4,975,-15,659,"absent"," left",1,3.391,"absent","half"
"477","tex",1,57,5,1360,-400,573,"absent"," left",1,3.391,"absent","half"
"478","tex",1,57,6,1127,-167,891,"absent"," left",1,3.391,"absent","half"
"479","tex",1,57,7,1233,-273,495,"absent"," left",1,3.391,"absent","half"
"480","tex",1,57,8,1200,-240,478,"absent"," left",1,3.391,"absent","half"
"481","tex",1,57,9,1229,-269,475,"absent"," left",1,3.391,"absent","half"
"482","tex",1,57,10,1339,-379,258,"absent"," left",1,3.391,"absent","half"
"483","tex",1,57,11,679,281,307,"absent"," left",1,3.391,"absent","half"
"484","tex",1,57,12,575,385,592,"absent"," left",1,3.391,"absent","half"
"485","tex",1,58,1,950,-10,537,"absent"," right",1,2.456,"absent","half"
"486","tex",1,58,2,874,-86,522,"absent"," right",1,2.456,"absent","half"
"487","tex",1,58,3,911,-49,460,"absent"," right",1,2.456,"absent","half"
"488","tex",1,58,4,938,-22,635,"absent"," right",1,2.456,"absent","half"
"489","tex",1,58,5,524,-436,375,"absent"," right",1,2.456,"absent","half"
"490","tex",1,58,6,615,-345,461,"absent"," right",1,2.456,"absent","half"
"491","tex",1,58,7,1139,179,591,"absent"," right",1,2.456,"absent","half"
"492","tex",1,58,8,975,15,701,"absent"," right",1,2.456,"absent","half"
"493","tex",1,58,9,630,-330,839,"absent"," right",1,2.456,"absent","half"
"494","tex",1,59,1,950,10,545," easy"," left",1,0.696,"present","half"
"495","tex",1,59,2,558,402,731," easy"," left",1,0.696,"present","half"
"496","tex",1,59,3,530,430,736," easy"," left",1,0.696,"present","half"
"497","tex",1,60,1,954,6,552,"absent"," left",1,1.998,"absent","half"
"498","tex",1,60,2,901,59,585,"absent"," left",1,1.998,"absent","half"
"499","tex",1,60,3,1033,-73,769,"absent"," left",1,1.998,"absent","half"
"500","tex",1,60,4,550,410,851,"absent"," left",1,1.998,"absent","half"
"501","tex",1,60,5,1136,-176,843,"absent"," left",1,1.998,"absent","half"
"502","tex",1,60,6,1065,-105,455,"absent"," left",1,1.998,"absent","half"
"503","tex",1,60,7,979,-19,487,"absent"," left",1,1.998,"absent","half"
"504","tex",1,61,1,946,14,531,"absent"," left",1,4.427,"absent","half"
"505","tex",1,61,2,924,36,529,"absent"," left",1,4.427,"absent","half"
"506","tex",1,61,3,1071,-111,714,"absent"," left",1,4.427,"absent","half"
"507","tex",1,61,4,1458,-498,879,"absent"," left",1,4.427,"absent","half"
"508","tex",1,61,5,992,-32,752,"absent"," left",1,4.427,"absent","half"
"509","tex",1,61,6,1323,-363,820,"absent"," left",1,4.427,"absent","half"
"510","tex",1,61,7,1014,-54,604,"absent"," left",1,4.427,"absent","half"
"511","tex",1,61,8,1124,-164,337,"absent"," left",1,4.427,"absent","half"
"512","tex",1,61,9,1018,-58,557,"absent"," left",1,4.427,"absent","half"
"513","tex",1,61,10,978,-18,545,"absent"," left",1,4.427,"absent","half"
"514","tex",1,61,11,999,-39,630,"absent"," left",1,4.427,"absent","half"
"515","tex",1,61,12,1045,-85,393,"absent"," left",1,4.427,"absent","half"
"516","tex",1,61,13,628,332,525,"absent"," left",1,4.427,"absent","half"
"517","tex",1,61,14,621,339,670,"absent"," left",1,4.427,"absent","half"
"518","tex",1,61,15,1020,-60,737,"absent"," left",1,4.427,"absent","half"
"519","tex",1,62,1,953,-7,548," easy"," right",1,0.608,"present","half"
"520","tex",1,62,2,922,-38,549," easy"," right",1,0.608,"present","half"
"521","tex",1,62,3,1355,395,416," easy"," right",1,0.608,"present","half"
"522","tex",1,62,4,1404,444,429," easy"," right",1,0.608,"present","half"
"523","tex",1,64,1,949,-11,546," easy"," right",1,0.631,"present","half"
"524","tex",1,64,2,961,1,534," easy"," right",1,0.631,"present","half"
"525","tex",1,64,3,1257,297,564," easy"," right",1,0.631,"present","half"
"526","tex",1,64,4,1306,346,576," easy"," right",1,0.631,"present","half"
"527","tex",1,65,1,948,12,555,"absent"," left",1,2.965,"absent","half"
"528","tex",1,65,2,1036,-76,583,"absent"," left",1,2.965,"absent","half"
"529","tex",1,65,3,1218,-258,654,"absent"," left",1,2.965,"absent","half"
"530","tex",1,65,4,652,308,608,"absent"," left",1,2.965,"absent","half"
"531","tex",1,65,5,782,178,731,"absent"," left",1,2.965,"absent","half"
"532","tex",1,65,6,502,458,444,"absent"," left",1,2.965,"absent","half"
"533","tex",1,65,7,1042,-82,283,"absent"," left",1,2.965,"absent","half"
"534","tex",1,65,8,1201,-241,634,"absent"," left",1,2.965,"absent","half"
"535","tex",1,65,9,1155,-195,738,"absent"," left",1,2.965,"absent","half"
"536","tex",1,65,10,1263,-303,482,"absent"," left",1,2.965,"absent","half"
"537","tex",1,65,11,1397,-437,860,"absent"," left",1,2.965,"absent","half"
"538","tex",1,65,12,699,261,855,"absent"," left",1,2.965,"absent","half"
"539","tex",1,66,1,943,-17,539," hard"," right",1,1.598,"present","half"
"540","tex",1,66,2,833,-127,606," hard"," right",1,1.598,"present","half"
"541","tex",1,66,3,893,-67,656," hard"," right",1,1.598,"present","half"
"542","tex",1,66,4,517,-443,539," hard"," right",1,1.598,"present","half"
"543","tex",1,66,5,529,-431,242," hard"," right",1,1.598,"present","half"
"544","tex",1,66,6,505,-455,225," hard"," right",1,1.598,"present","half"
"545","tex",1,66,7,518,-442,215," hard"," right",1,1.598,"present","half"
"546","tex",1,67,1,935,-25,529,"absent"," right",1,2.251,"absent","half"
"547","tex",1,67,2,791,-169,603,"absent"," right",1,2.251,"absent","half"
"548","tex",1,67,3,616,-344,406,"absent"," right",1,2.251,"absent","half"
"549","tex",1,67,4,665,-295,586,"absent"," right",1,2.251,"absent","half"
"550","tex",1,67,5,692,-268,309,"absent"," right",1,2.251,"absent","half"
"551","tex",1,67,6,1172,212,477,"absent"," right",1,2.251,"absent","half"
"552","tex",1,67,7,1259,299,772,"absent"," right",1,2.251,"absent","half"
"553","tex",1,67,8,541,-419,539,"absent"," right",1,2.251,"absent","half"
"554","tex",1,67,9,463,-497,518,"absent"," right",1,2.251,"absent","half"
"555","tex",1,68,1,926,-34,525," hard"," right",1,1.138,"present","half"
"556","tex",1,68,2,955,-5,504," hard"," right",1,1.138,"present","half"
"557","tex",1,68,3,891,-69,526," hard"," right",1,1.138,"present","half"
"558","tex",1,68,4,626,-334,490," hard"," right",1,1.138,"present","half"
"559","tex",1,68,5,735,-225,260," hard"," right",1,1.138,"present","half"
"560","tex",1,68,6,752,-208,264," hard"," right",1,1.138,"present","half"
"561","tex",1,69,1,936,24,543,"absent"," left",1,3.605,"absent","half"
"562","tex",1,69,2,796,164,471,"absent"," left",1,3.605,"absent","half"
"563","tex",1,69,3,1023,-63,733,"absent"," left",1,3.605,"absent","half"
"564","tex",1,69,4,1119,-159,629,"absent"," left",1,3.605,"absent","half"
"565","tex",1,69,5,947,13,516,"absent"," left",1,3.605,"absent","half"
"566","tex",1,69,6,1100,-140,471,"absent"," left",1,3.605,"absent","half"
"567","tex",1,69,7,1279,-319,303,"absent"," left",1,3.605,"absent","half"
"568","tex",1,69,8,1069,-109,483,"absent"," left",1,3.605,"absent","half"
"569","tex",1,69,9,1144,-184,447,"absent"," left",1,3.605,"absent","half"
"570","tex",1,69,10,1067,-107,506,"absent"," left",1,3.605,"absent","half"
"571","tex",1,70,1,948,-12,550," easy"," right",1,0.61,"present","half"
"572","tex",1,70,2,915,-45,528," easy"," right",1,0.61,"present","half"
"573","tex",1,70,3,932,-28,521," easy"," right",1,0.61,"present","half"
"574","tex",1,70,4,1343,383,689," easy"," right",1,0.61,"present","half"
"575","tex",1,70,5,1369,409,697," easy"," right",1,0.61,"present","half"
"576","tex",1,71,1,946,-14,543,"absent"," right",1,1.759,"absent","half"
"577","tex",1,71,2,823,-137,593,"absent"," right",1,1.759,"absent","half"
"578","tex",1,71,3,545,-415,712,"absent"," right",1,1.759,"absent","half"
"579","tex",1,71,4,1137,177,707,"absent"," right",1,1.759,"absent","half"
"580","tex",1,71,5,760,-200,661,"absent"," right",1,1.759,"absent","half"
"581","tex",1,71,6,724,-236,549,"absent"," right",1,1.759,"absent","half"
"582","tex",1,72,1,939,21,556,"absent"," left",1,1.583,"absent","half"
"583","tex",1,72,2,1030,-70,576,"absent"," left",1,1.583,"absent","half"
"584","tex",1,72,3,1013,-53,414,"absent"," left",1,1.583,"absent","half"
"585","tex",1,72,4,1171,-211,624,"absent"," left",1,1.583,"absent","half"
"586","tex",1,72,5,1096,-136,631,"absent"," left",1,1.583,"absent","half"
"587","tex",1,73,1,941,-19,547," easy"," right",1,0.591,"present","half"
"588","tex",1,73,2,1017,57,786," easy"," right",1,0.591,"present","half"
"589","tex",1,73,3,1020,60,841," easy"," right",1,0.591,"present","half"
"590","tex",1,74,1,938,22,543,"absent"," left",1,1.849,"absent","half"
"591","tex",1,74,2,922,38,674,"absent"," left",1,1.849,"absent","half"
"592","tex",1,74,3,995,-35,582,"absent"," left",1,1.849,"absent","half"
"593","tex",1,74,4,864,96,525,"absent"," left",1,1.849,"absent","half"
"594","tex",1,74,5,1022,-62,762,"absent"," left",1,1.849,"absent","half"
"595","tex",1,74,6,1092,-132,441,"absent"," left",1,1.849,"absent","half"
"596","tex",1,74,7,532,428,318,"absent"," left",1,1.849,"absent","half"
"597","tex",1,74,8,1107,-147,302,"absent"," left",1,1.849,"absent","half"
"598","tex",1,75,1,928,32,519," hard"," left",1,0.676,"present","half"
"599","tex",1,75,2,946,14,527," hard"," left",1,0.676,"present","half"
"600","tex",1,75,3,1078,-118,372," hard"," left",1,0.676,"present","half"
"601","tex",1,75,4,1077,-117,355," hard"," left",1,0.676,"present","half"
"602","tex",1,76,1,957,3,528,"absent"," left",1,1.911,"absent","half"
"603","tex",1,76,2,1002,-42,392,"absent"," left",1,1.911,"absent","half"
"604","tex",1,76,3,688,272,512,"absent"," left",1,1.911,"absent","half"
"605","tex",1,76,4,985,-25,584,"absent"," left",1,1.911,"absent","half"
"606","tex",1,76,5,729,231,620,"absent"," left",1,1.911,"absent","half"
"607","tex",1,76,6,1113,-153,714,"absent"," left",1,1.911,"absent","half"
"608","tex",1,77,1,925,35,530," hard"," left",1,0.546,"present","half"
"609","tex",1,77,2,946,14,538," hard"," left",1,0.546,"present","half"
"610","tex",1,77,3,1029,-69,573," hard"," left",1,0.546,"present","half"
"611","tex",1,78,1,940,-20,550,"absent"," right",1,2.578,"absent","half"
"612","tex",1,78,2,1033,73,507,"absent"," right",1,2.578,"absent","half"
"613","tex",1,78,3,596,-364,472,"absent"," right",1,2.578,"absent","half"
"614","tex",1,78,4,589,-371,525,"absent"," right",1,2.578,"absent","half"
"615","tex",1,78,5,845,-115,519,"absent"," right",1,2.578,"absent","half"
"616","tex",1,78,6,617,-343,540,"absent"," right",1,2.578,"absent","half"
"617","tex",1,79,1,951,9,533," easy"," left",1,0.476,"present","half"
"618","tex",1,79,2,860,100,539," easy"," left",1,0.476,"present","half"
"619","tex",1,79,3,859,101,475," easy"," left",1,0.476,"present","half"
"620","tex",1,79,4,838,122,461," easy"," left",1,0.476,"present","half"
"621","tex",1,80,1,949,-11,558," hard"," right",0,0.993,"present","half"
"622","tex",1,80,2,889,-71,521," hard"," right",0,0.993,"present","half"
"623","tex",1,80,3,779,-181,495," hard"," right",0,0.993,"present","half"
"624","tex",1,81,1,947,-13,507,"absent"," right",1,2.991,"absent","half"
"625","tex",1,81,2,797,-163,480,"absent"," right",1,2.991,"absent","half"
"626","tex",1,81,3,795,-165,399,"absent"," right",1,2.991,"absent","half"
"627","tex",1,81,4,842,-118,337,"absent"," right",1,2.991,"absent","half"
"628","tex",1,81,5,646,-314,299,"absent"," right",1,2.991,"absent","half"
"629","tex",1,81,6,763,-197,482,"absent"," right",1,2.991,"absent","half"
"630","tex",1,81,7,631,-329,487,"absent"," right",1,2.991,"absent","half"
"631","tex",1,81,8,1101,141,502,"absent"," right",1,2.991,"absent","half"
"632","tex",1,81,9,1046,86,509,"absent"," right",1,2.991,"absent","half"
"633","tex",1,81,10,886,-74,572,"absent"," right",1,2.991,"absent","half"
"634","tex",1,81,11,737,-223,870,"absent"," right",1,2.991,"absent","half"
"635","tex",1,82,1,941,-19,535," easy"," right",1,0.604,"present","half"
"636","tex",1,82,2,970,10,464," easy"," right",1,0.604,"present","half"
"637","tex",1,82,3,1114,154,270," easy"," right",1,0.604,"present","half"
"638","tex",1,82,4,1156,196,242," easy"," right",1,0.604,"present","half"
"639","tex",1,83,1,954,-6,534,"absent"," right",1,2.153,"absent","half"
"640","tex",1,83,2,998,38,387,"absent"," right",1,2.153,"absent","half"
"641","tex",1,83,3,1081,121,330,"absent"," right",1,2.153,"absent","half"
"642","tex",1,83,4,735,-225,390,"absent"," right",1,2.153,"absent","half"
"643","tex",1,83,5,647,-313,297,"absent"," right",1,2.153,"absent","half"
"644","tex",1,83,6,738,-222,624,"absent"," right",1,2.153,"absent","half"
"645","tex",1,83,7,597,-363,683,"absent"," right",1,2.153,"absent","half"
"646","tex",1,83,8,848,-112,821,"absent"," right",1,2.153,"absent","half"
"647","tex",1,83,9,797,-163,827,"absent"," right",1,2.153,"absent","half"
"648","tex",1,83,10,816,-144,730,"absent"," right",1,2.153,"absent","half"
"649","tex",1,84,1,943,17,509," easy"," left",1,0.639,"present","half"
"650","tex",1,84,2,871,89,485," easy"," left",1,0.639,"present","half"
"651","tex",1,84,3,561,399,694," easy"," left",1,0.639,"present","half"
"652","tex",1,84,4,542,418,684," easy"," left",1,0.639,"present","half"
"653","tex",1,85,1,943,17,557," easy"," left",1,0.554,"present","half"
"654","tex",1,85,2,941,19,512," easy"," left",1,0.554,"present","half"
"655","tex",1,85,3,745,215,269," easy"," left",1,0.554,"present","half"
"656","tex",1,86,1,939,21,554," hard"," left",1,1.542,"present","half"
"657","tex",1,86,2,950,10,524," hard"," left",1,1.542,"present","half"
"658","tex",1,86,3,804,156,496," hard"," left",1,1.542,"present","half"
"659","tex",1,86,4,1220,-260,788," hard"," left",1,1.542,"present","half"
"660","tex",1,86,5,542,418,804," hard"," left",1,1.542,"present","half"
"661","tex",1,86,6,1282,-322,369," hard"," left",1,1.542,"present","half"
"662","tex",1,86,7,1075,-115,330," hard"," left",1,1.542,"present","half"
"663","tex",1,86,8,1370,-410,380," hard"," left",1,1.542,"present","half"
"664","tex",1,87,1,948,-12,523,"absent"," right",1,2.334,"absent","half"
"665","tex",1,87,2,958,-2,482,"absent"," right",1,2.334,"absent","half"
"666","tex",1,87,3,544,-416,483,"absent"," right",1,2.334,"absent","half"
"667","tex",1,87,4,701,-259,647,"absent"," right",1,2.334,"absent","half"
"668","tex",1,87,5,564,-396,658,"absent"," right",1,2.334,"absent","half"
"669","tex",1,87,6,458,-502,874,"absent"," right",1,2.334,"absent","half"
"670","tex",1,87,7,1224,264,470,"absent"," right",1,2.334,"absent","half"
"671","tex",1,87,8,1334,374,302,"absent"," right",1,2.334,"absent","half"
"672","tex",1,87,9,844,-116,243,"absent"," right",1,2.334,"absent","half"
"673","tex",1,88,1,944,-16,535," easy"," right",1,0.589,"present","half"
"674","tex",1,88,2,1228,268,554," easy"," right",1,0.589,"present","half"
"675","tex",1,88,3,1196,236,547," easy"," right",1,0.589,"present","half"
"676","tex",1,89,1,954,-6,543," hard"," right",1,0.763,"present","half"
"677","tex",1,89,2,855,-105,470," hard"," right",1,0.763,"present","half"
"678","tex",1,89,3,797,-163,341," hard"," right",1,0.763,"present","half"
"679","tex",1,89,4,752,-208,337," hard"," right",1,0.763,"present","half"
"680","tex",1,90,1,948,12,526," hard"," left",0,1.657,"present","half"
"681","tex",1,90,2,784,176,466," hard"," left",0,1.657,"present","half"
"682","tex",1,90,3,1098,-138,558," hard"," left",0,1.657,"present","half"
"683","tex",1,90,4,1368,-408,604," hard"," left",0,1.657,"present","half"
"684","tex",1,90,5,1007,-47,669," hard"," left",0,1.657,"present","half"
"685","tex",1,90,6,1126,-166,686," hard"," left",0,1.657,"present","half"
"686","tex",1,91,1,947,13,521," easy"," left",1,0.565,"present","half"
"687","tex",1,91,2,895,65,515," easy"," left",1,0.565,"present","half"
"688","tex",1,91,3,523,437,665," easy"," left",1,0.565,"present","half"
"689","tex",1,92,1,949,-11,543,"absent"," right",1,4.215,"absent","half"
"690","tex",1,92,2,631,-329,588,"absent"," right",1,4.215,"absent","half"
"691","tex",1,92,3,875,-85,656,"absent"," right",1,4.215,"absent","half"
"692","tex",1,92,4,1151,191,507,"absent"," right",1,4.215,"absent","half"
"693","tex",1,92,5,913,-47,467,"absent"," right",1,4.215,"absent","half"
"694","tex",1,92,6,1027,67,699,"absent"," right",1,4.215,"absent","half"
"695","tex",1,92,7,871,-89,586,"absent"," right",1,4.215,"absent","half"
"696","tex",1,92,8,1227,267,753,"absent"," right",1,4.215,"absent","half"
"697","tex",1,92,9,827,-133,616,"absent"," right",1,4.215,"absent","half"
"698","tex",1,92,10,757,-203,530,"absent"," right",1,4.215,"absent","half"
"699","tex",1,92,11,778,-182,512,"absent"," right",1,4.215,"absent","half"
"700","tex",1,92,12,1104,144,608,"absent"," right",1,4.215,"absent","half"
"701","tex",1,92,13,1292,332,856,"absent"," right",1,4.215,"absent","half"
"702","tex",1,92,14,1214,254,844,"absent"," right",1,4.215,"absent","half"
"703","tex",1,92,15,709,-251,866,"absent"," right",1,4.215,"absent","half"
"704","tex",1,92,16,465,-495,882,"absent"," right",1,4.215,"absent","half"
"705","tex",1,92,17,474,-486,327,"absent"," right",1,4.215,"absent","half"
"706","tex",1,93,1,948,12,527," hard"," left",1,1.218,"present","half"
"707","tex",1,93,2,975,-15,453," hard"," left",1,1.218,"present","half"
"708","tex",1,93,3,1111,-151,879," hard"," left",1,1.218,"present","half"
"709","tex",1,93,4,1144,-184,866," hard"," left",1,1.218,"present","half"
"710","tex",1,93,5,1119,-159,849," hard"," left",1,1.218,"present","half"
"711","tex",1,93,6,1134,-174,857," hard"," left",1,1.218,"present","half"
"712","tex",1,94,1,947,13,546,"absent"," left",1,2.185,"absent","half"
"713","tex",1,94,2,1011,-51,659,"absent"," left",1,2.185,"absent","half"
"714","tex",1,94,3,643,317,610,"absent"," left",1,2.185,"absent","half"
"715","tex",1,94,4,972,-12,809,"absent"," left",1,2.185,"absent","half"
"716","tex",1,94,5,1045,-85,366,"absent"," left",1,2.185,"absent","half"
"717","tex",1,94,6,962,-2,302,"absent"," left",1,2.185,"absent","half"
"718","tex",1,94,7,1303,-343,268,"absent"," left",1,2.185,"absent","half"
"719","tex",1,94,8,1056,-96,517,"absent"," left",1,2.185,"absent","half"
"720","tex",1,95,1,941,19,540," easy"," left",1,0.848,"present","half"
"721","tex",1,95,2,582,378,535," easy"," left",1,0.848,"present","half"
"722","tex",1,95,3,1287,-327,561," easy"," left",1,0.848,"present","half"
"723","tex",1,95,4,1311,-351,561," easy"," left",1,0.848,"present","half"
"724","tex",1,95,5,466,494,515," easy"," left",1,0.848,"present","half"
"725","tex",1,96,1,951,9,532," hard"," left",0,3.302,"present","half"
"726","tex",1,96,2,817,143,527," hard"," left",0,3.302,"present","half"
"727","tex",1,96,3,963,-3,600," hard"," left",0,3.302,"present","half"
"728","tex",1,96,4,819,141,429," hard"," left",0,3.302,"present","half"
"729","tex",1,96,5,458,502,460," hard"," left",0,3.302,"present","half"
"730","tex",1,96,6,1065,-105,667," hard"," left",0,3.302,"present","half"
"731","tex",1,96,7,1123,-163,532," hard"," left",0,3.302,"present","half"
"732","tex",1,96,8,998,-38,529," hard"," left",0,3.302,"present","half"
"733","tex",1,96,9,1318,-358,462," hard"," left",0,3.302,"present","half"
"734","tex",1,96,10,1017,-57,371," hard"," left",0,3.302,"present","half"
"735","tex",1,96,11,1005,-45,630," hard"," left",0,3.302,"present","half"
"736","tex",2,17,1,960,0,555," hard"," right",1,1.181,"present","half"
"737","tex",2,17,2,860,-100,510," hard"," right",1,1.181,"present","half"
"738","tex",2,17,3,903,-57,605," hard"," right",1,1.181,"present","half"
"739","tex",2,17,4,622,-338,461," hard"," right",1,1.181,"present","half"
"740","tex",2,18,1,934,-26,542," hard"," right",1,1.884,"present","half"
"741","tex",2,18,2,812,-148,542," hard"," right",1,1.884,"present","half"
"742","tex",2,18,3,876,-84,657," hard"," right",1,1.884,"present","half"
"743","tex",2,18,4,571,-389,631," hard"," right",1,1.884,"present","half"
"744","tex",2,18,5,768,-192,740," hard"," right",1,1.884,"present","half"
"745","tex",2,18,6,767,-193,751," hard"," right",1,1.884,"present","half"
"746","tex",2,19,1,965,5,543," easy"," right",1,1.117,"present","half"
"747","tex",2,19,2,909,-51,566," easy"," right",1,1.117,"present","half"
"748","tex",2,19,3,993,33,511," easy"," right",1,1.117,"present","half"
"749","tex",2,19,4,1212,252,353," easy"," right",1,1.117,"present","half"
"750","tex",2,19,5,1233,273,348," easy"," right",1,1.117,"present","half"
"751","tex",2,20,1,959,-1,569," hard"," right",0,1.611,"present","half"
"752","tex",2,20,2,914,-46,570," hard"," right",0,1.611,"present","half"
"753","tex",2,20,3,817,-143,635," hard"," right",0,1.611,"present","half"
"754","tex",2,20,4,1105,145,789," hard"," right",0,1.611,"present","half"
"755","tex",2,20,5,666,-294,355," hard"," right",0,1.611,"present","half"
"756","tex",2,20,6,773,-187,382," hard"," right",0,1.611,"present","half"
"757","tex",2,20,7,642,-318,494," hard"," right",0,1.611,"present","half"
"758","tex",2,21,1,955,-5,567," hard"," right",1,1.081,"present","half"
"759","tex",2,21,2,871,-89,619," hard"," right",1,1.081,"present","half"
"760","tex",2,21,3,992,32,693," hard"," right",1,1.081,"present","half"
"761","tex",2,21,4,522,-438,713," hard"," right",1,1.081,"present","half"
"762","tex",2,22,1,962,-2,558," easy"," left",1,1.014,"present","half"
"763","tex",2,22,2,900,60,619," easy"," left",1,1.014,"present","half"
"764","tex",2,23,1,977,-17,561,"absent"," left",1,3.737,"absent","half"
"765","tex",2,23,2,948,12,565,"absent"," left",1,3.737,"absent","half"
"766","tex",2,23,3,859,101,554,"absent"," left",1,3.737,"absent","half"
"767","tex",2,23,4,1229,-269,538,"absent"," left",1,3.737,"absent","half"
"768","tex",2,23,5,1032,-72,611,"absent"," left",1,3.737,"absent","half"
"769","tex",2,23,6,1037,-77,494,"absent"," left",1,3.737,"absent","half"
"770","tex",2,23,7,1024,-64,394,"absent"," left",1,3.737,"absent","half"
"771","tex",2,23,8,639,321,800,"absent"," left",1,3.737,"absent","half"
"772","tex",2,23,9,578,382,687,"absent"," left",1,3.737,"absent","half"
"773","tex",2,23,10,529,431,509,"absent"," left",1,3.737,"absent","half"
"774","tex",2,23,11,781,179,471,"absent"," left",1,3.737,"absent","half"
"775","tex",2,23,12,1133,-173,628,"absent"," left",1,3.737,"absent","half"
"776","tex",2,23,13,1317,-357,737,"absent"," left",1,3.737,"absent","half"
"777","tex",2,23,14,1012,-52,725,"absent"," left",1,3.737,"absent","half"
"778","tex",2,23,15,752,208,660,"absent"," left",1,3.737,"absent","half"
"779","tex",2,24,1,971,-11,559," easy"," left",1,1.122,"present","half"
"780","tex",2,24,2,722,238,470," easy"," left",1,1.122,"present","half"
"781","tex",2,24,3,565,395,380," easy"," left",1,1.122,"present","half"
"782","tex",2,24,4,574,386,392," easy"," left",1,1.122,"present","half"
"783","tex",2,25,1,959,-1,547,"absent"," right",1,3.101,"absent","half"
"784","tex",2,25,2,784,-176,517,"absent"," right",1,3.101,"absent","half"
"785","tex",2,25,3,912,-48,682,"absent"," right",1,3.101,"absent","half"
"786","tex",2,25,4,938,-22,643,"absent"," right",1,3.101,"absent","half"
"787","tex",2,25,5,770,-190,743,"absent"," right",1,3.101,"absent","half"
"788","tex",2,25,6,593,-367,607,"absent"," right",1,3.101,"absent","half"
"789","tex",2,25,7,641,-319,359,"absent"," right",1,3.101,"absent","half"
"790","tex",2,25,8,528,-432,556,"absent"," right",1,3.101,"absent","half"
"791","tex",2,25,9,510,-450,667,"absent"," right",1,3.101,"absent","half"
"792","tex",2,25,10,522,-438,634,"absent"," right",1,3.101,"absent","half"
"793","tex",2,25,11,1175,215,736,"absent"," right",1,3.101,"absent","half"
"794","tex",2,25,12,1270,310,617,"absent"," right",1,3.101,"absent","half"
"795","tex",2,25,13,1083,123,750,"absent"," right",1,3.101,"absent","half"
"796","tex",2,26,1,939,21,560," hard"," left",1,0.744,"present","half"
"797","tex",2,26,2,799,161,536," hard"," left",1,0.744,"present","half"
"798","tex",2,26,3,1035,-75,578," hard"," left",1,0.744,"present","half"
"799","tex",2,26,4,1055,-95,586," hard"," left",1,0.744,"present","half"
"800","tex",2,27,1,963,3,570,"absent"," right",1,3.305,"absent","half"
"801","tex",2,27,2,979,19,562,"absent"," right",1,3.305,"absent","half"
"802","tex",2,27,3,891,-69,613,"absent"," right",1,3.305,"absent","half"
"803","tex",2,27,4,562,-398,521,"absent"," right",1,3.305,"absent","half"
"804","tex",2,27,5,900,-60,839,"absent"," right",1,3.305,"absent","half"
"805","tex",2,27,6,647,-313,697,"absent"," right",1,3.305,"absent","half"
"806","tex",2,27,7,626,-334,598,"absent"," right",1,3.305,"absent","half"
"807","tex",2,27,8,924,-36,601,"absent"," right",1,3.305,"absent","half"
"808","tex",2,27,9,712,-248,591,"absent"," right",1,3.305,"absent","half"
"809","tex",2,27,10,605,-355,349,"absent"," right",1,3.305,"absent","half"
"810","tex",2,27,11,805,-155,390,"absent"," right",1,3.305,"absent","half"
"811","tex",2,27,12,638,-322,447,"absent"," right",1,3.305,"absent","half"
"812","tex",2,27,13,869,-91,473,"absent"," right",1,3.305,"absent","half"
"813","tex",2,28,1,890,70,555," hard"," left",1,2.828,"present","half"
"814","tex",2,28,2,994,-34,530," hard"," left",1,2.828,"present","half"
"815","tex",2,28,3,1034,-74,529," hard"," left",1,2.828,"present","half"
"816","tex",2,28,4,936,24,648," hard"," left",1,2.828,"present","half"
"817","tex",2,28,5,868,92,677," hard"," left",1,2.828,"present","half"
"818","tex",2,28,6,623,337,634," hard"," left",1,2.828,"present","half"
"819","tex",2,28,7,834,126,812," hard"," left",1,2.828,"present","half"
"820","tex",2,28,8,1147,-187,811," hard"," left",1,2.828,"present","half"
"821","tex",2,28,9,1168,-208,458," hard"," left",1,2.828,"present","half"
"822","tex",2,28,10,1035,-75,357," hard"," left",1,2.828,"present","half"
"823","tex",2,28,11,1359,-399,467," hard"," left",1,2.828,"present","half"
"824","tex",2,28,12,1391,-431,497," hard"," left",1,2.828,"present","half"
"825","tex",2,29,1,959,1,550,"absent"," left",1,3.923,"absent","half"
"826","tex",2,29,2,965,-5,563,"absent"," left",1,3.923,"absent","half"
"827","tex",2,29,3,1414,-454,897,"absent"," left",1,3.923,"absent","half"
"828","tex",2,29,4,547,413,748,"absent"," left",1,3.923,"absent","half"
"829","tex",2,29,5,485,475,674,"absent"," left",1,3.923,"absent","half"
"830","tex",2,29,6,456,504,642,"absent"," left",1,3.923,"absent","half"
"831","tex",2,29,7,470,490,947,"absent"," left",1,3.923,"absent","half"
"832","tex",2,29,8,464,496,891,"absent"," left",1,3.923,"absent","half"
"833","tex",2,29,9,1030,-70,387,"absent"," left",1,3.923,"absent","half"
"834","tex",2,29,10,1296,-336,418,"absent"," left",1,3.923,"absent","half"
"835","tex",2,29,11,1020,-60,483,"absent"," left",1,3.923,"absent","half"
"836","tex",2,29,12,1059,-99,482,"absent"," left",1,3.923,"absent","half"
"837","tex",2,29,13,609,351,513,"absent"," left",1,3.923,"absent","half"
"838","tex",2,29,14,569,391,551,"absent"," left",1,3.923,"absent","half"
"839","tex",2,29,15,816,144,479,"absent"," left",1,3.923,"absent","half"
"840","tex",2,30,1,964,4,543," easy"," right",1,0.591,"present","half"
"841","tex",2,30,2,772,-188,493," easy"," right",1,0.591,"present","half"
"842","tex",2,30,3,1074,114,600," easy"," right",1,0.591,"present","half"
"843","tex",2,30,4,1028,68,591," easy"," right",1,0.591,"present","half"
"844","tex",2,31,1,961,-1,557,"absent"," left",1,2.015,"absent","half"
"845","tex",2,31,2,987,-27,566,"absent"," left",1,2.015,"absent","half"
"846","tex",2,31,3,758,202,508,"absent"," left",1,2.015,"absent","half"
"847","tex",2,31,4,581,379,516,"absent"," left",1,2.015,"absent","half"
"848","tex",2,31,5,1270,-310,658,"absent"," left",1,2.015,"absent","half"
"849","tex",2,31,6,1039,-79,734,"absent"," left",1,2.015,"absent","half"
"850","tex",2,31,7,949,11,601,"absent"," left",1,2.015,"absent","half"
"851","tex",2,31,8,1290,-330,904,"absent"," left",1,2.015,"absent","half"
"852","tex",2,31,9,1031,-71,632,"absent"," left",1,2.015,"absent","half"
"853","tex",2,31,10,1004,-44,398,"absent"," left",1,2.015,"absent","half"
"854","tex",2,32,1,965,5,563,"absent"," right",1,3.945,"absent","half"
"855","tex",2,32,2,867,-93,598,"absent"," right",1,3.945,"absent","half"
"856","tex",2,32,3,777,-183,365,"absent"," right",1,3.945,"absent","half"
"857","tex",2,32,4,933,-27,605,"absent"," right",1,3.945,"absent","half"
"858","tex",2,32,5,630,-330,628,"absent"," right",1,3.945,"absent","half"
"859","tex",2,32,6,891,-69,649,"absent"," right",1,3.945,"absent","half"
"860","tex",2,32,7,1097,137,649,"absent"," right",1,3.945,"absent","half"
"861","tex",2,32,8,1172,212,788,"absent"," right",1,3.945,"absent","half"
"862","tex",2,32,9,1079,119,929,"absent"," right",1,3.945,"absent","half"
"863","tex",2,32,10,795,-165,892,"absent"," right",1,3.945,"absent","half"
"864","tex",2,32,11,669,-291,466,"absent"," right",1,3.945,"absent","half"
"865","tex",2,32,12,906,-54,599,"absent"," right",1,3.945,"absent","half"
"866","tex",2,32,13,875,-85,614,"absent"," right",1,3.945,"absent","half"
"867","tex",2,33,1,975,-15,566,"absent"," left",1,3.673,"absent","half"
"868","tex",2,33,2,944,16,556,"absent"," left",1,3.673,"absent","half"
"869","tex",2,33,3,608,352,548,"absent"," left",1,3.673,"absent","half"
"870","tex",2,33,4,1017,-57,440,"absent"," left",1,3.673,"absent","half"
"871","tex",2,33,5,1236,-276,523,"absent"," left",1,3.673,"absent","half"
"872","tex",2,33,6,1055,-95,699,"absent"," left",1,3.673,"absent","half"
"873","tex",2,33,7,1342,-382,874,"absent"," left",1,3.673,"absent","half"
"874","tex",2,33,8,1164,-204,895,"absent"," left",1,3.673,"absent","half"
"875","tex",2,33,9,1300,-340,625,"absent"," left",1,3.673,"absent","half"
"876","tex",2,33,10,1073,-113,651,"absent"," left",1,3.673,"absent","half"
"877","tex",2,33,11,946,14,686,"absent"," left",1,3.673,"absent","half"
"878","tex",2,34,1,980,20,581,"absent"," right",1,2.579,"absent","half"
"879","tex",2,34,2,939,-21,572,"absent"," right",1,2.579,"absent","half"
"880","tex",2,34,3,1390,430,801,"absent"," right",1,2.579,"absent","half"
"881","tex",2,34,4,645,-315,617,"absent"," right",1,2.579,"absent","half"
"882","tex",2,34,5,577,-383,496,"absent"," right",1,2.579,"absent","half"
"883","tex",2,34,6,607,-353,460,"absent"," right",1,2.579,"absent","half"
"884","tex",2,34,7,524,-436,566,"absent"," right",1,2.579,"absent","half"
"885","tex",2,34,8,789,-171,303,"absent"," right",1,2.579,"absent","half"
"886","tex",2,34,9,757,-203,408,"absent"," right",1,2.579,"absent","half"
"887","tex",2,34,10,518,-442,273,"absent"," right",1,2.579,"absent","half"
"888","tex",2,35,1,986,26,548,"absent"," right",1,2.702,"absent","half"
"889","tex",2,35,2,923,-37,538,"absent"," right",1,2.702,"absent","half"
"890","tex",2,35,3,849,-111,503,"absent"," right",1,2.702,"absent","half"
"891","tex",2,35,4,679,-281,611,"absent"," right",1,2.702,"absent","half"
"892","tex",2,35,5,986,26,693,"absent"," right",1,2.702,"absent","half"
"893","tex",2,35,6,872,-88,654,"absent"," right",1,2.702,"absent","half"
"894","tex",2,35,7,651,-309,406,"absent"," right",1,2.702,"absent","half"
"895","tex",2,35,8,576,-384,582,"absent"," right",1,2.702,"absent","half"
"896","tex",2,35,9,1029,69,468,"absent"," right",1,2.702,"absent","half"
"897","tex",2,35,10,937,-23,450,"absent"," right",1,2.702,"absent","half"
"898","tex",2,36,1,956,-4,543,"absent"," right",1,3.834,"absent","half"
"899","tex",2,36,2,903,-57,566,"absent"," right",1,3.834,"absent","half"
"900","tex",2,36,3,861,-99,523,"absent"," right",1,3.834,"absent","half"
"901","tex",2,36,4,612,-348,557,"absent"," right",1,3.834,"absent","half"
"902","tex",2,36,5,848,-112,696,"absent"," right",1,3.834,"absent","half"
"903","tex",2,36,6,662,-298,410,"absent"," right",1,3.834,"absent","half"
"904","tex",2,36,7,559,-401,925,"absent"," right",1,3.834,"absent","half"
"905","tex",2,36,8,1093,133,902,"absent"," right",1,3.834,"absent","half"
"906","tex",2,36,9,1150,190,774,"absent"," right",1,3.834,"absent","half"
"907","tex",2,36,10,1430,470,815,"absent"," right",1,3.834,"absent","half"
"908","tex",2,36,11,675,-285,347,"absent"," right",1,3.834,"absent","half"
"909","tex",2,36,12,586,-374,255,"absent"," right",1,3.834,"absent","half"
"910","tex",2,36,13,746,-214,509,"absent"," right",1,3.834,"absent","half"
"911","tex",2,37,1,963,3,566,"absent"," right",1,2.158,"absent","half"
"912","tex",2,37,2,961,1,534,"absent"," right",1,2.158,"absent","half"
"913","tex",2,37,3,841,-119,489,"absent"," right",1,2.158,"absent","half"
"914","tex",2,37,4,510,-450,537,"absent"," right",1,2.158,"absent","half"
"915","tex",2,37,5,670,-290,518,"absent"," right",1,2.158,"absent","half"
"916","tex",2,37,6,485,-475,551,"absent"," right",1,2.158,"absent","half"
"917","tex",2,37,7,1068,108,510,"absent"," right",1,2.158,"absent","half"
"918","tex",2,37,8,1193,233,712,"absent"," right",1,2.158,"absent","half"
"919","tex",2,37,9,1251,291,757,"absent"," right",1,2.158,"absent","half"
"920","tex",2,38,1,961,1,544,"absent"," right",1,1.539,"absent","half"
"921","tex",2,38,2,986,26,566,"absent"," right",1,1.539,"absent","half"
"922","tex",2,38,3,869,-91,539,"absent"," right",1,1.539,"absent","half"
"923","tex",2,38,4,712,-248,442,"absent"," right",1,1.539,"absent","half"
"924","tex",2,38,5,566,-394,467,"absent"," right",1,1.539,"absent","half"
"925","tex",2,38,6,1112,152,529,"absent"," right",1,1.539,"absent","half"
"926","tex",2,38,7,1261,301,716,"absent"," right",1,1.539,"absent","half"
"927","tex",2,38,8,598,-362,864,"absent"," right",1,1.539,"absent","half"
"928","tex",2,39,1,969,-9,567,"absent"," left",1,2.144,"absent","half"
"929","tex",2,39,2,789,171,550,"absent"," left",1,2.144,"absent","half"
"930","tex",2,39,3,1135,-175,500,"absent"," left",1,2.144,"absent","half"
"931","tex",2,39,4,1041,-81,456,"absent"," left",1,2.144,"absent","half"
"932","tex",2,39,5,1044,-84,686,"absent"," left",1,2.144,"absent","half"
"933","tex",2,39,6,1061,-101,655,"absent"," left",1,2.144,"absent","half"
"934","tex",2,39,7,1272,-312,780,"absent"," left",1,2.144,"absent","half"
"935","tex",2,39,8,1128,-168,584,"absent"," left",1,2.144,"absent","half"
"936","tex",2,40,1,970,10,577," hard"," right",1,1.313,"present","half"
"937","tex",2,40,2,794,-166,634," hard"," right",1,1.313,"present","half"
"938","tex",2,40,3,648,-312,578," hard"," right",1,1.313,"present","half"
"939","tex",2,40,4,515,-445,578," hard"," right",1,1.313,"present","half"
"940","tex",2,41,1,941,19,575," easy"," left",1,0.661,"present","half"
"941","tex",2,41,2,682,278,578," easy"," left",1,0.661,"present","half"
"942","tex",2,42,1,949,-11,567," hard"," right",1,0.963,"present","half"
"943","tex",2,42,2,847,-113,584," hard"," right",1,0.963,"present","half"
"944","tex",2,42,3,608,-352,588," hard"," right",1,0.963,"present","half"
"945","tex",2,42,4,974,14,472," hard"," right",1,0.963,"present","half"
"946","tex",2,42,5,783,-177,413," hard"," right",1,0.963,"present","half"
"947","tex",2,42,6,766,-194,383," hard"," right",1,0.963,"present","half"
"948","tex",2,43,1,965,-5,564,"absent"," left",1,3.455,"absent","half"
"949","tex",2,43,2,781,179,464,"absent"," left",1,3.455,"absent","half"
"950","tex",2,43,3,1009,-49,469,"absent"," left",1,3.455,"absent","half"
"951","tex",2,43,4,1245,-285,705,"absent"," left",1,3.455,"absent","half"
"952","tex",2,43,5,1384,-424,439,"absent"," left",1,3.455,"absent","half"
"953","tex",2,43,6,692,268,363,"absent"," left",1,3.455,"absent","half"
"954","tex",2,43,7,495,465,454,"absent"," left",1,3.455,"absent","half"
"955","tex",2,43,8,639,321,737,"absent"," left",1,3.455,"absent","half"
"956","tex",2,43,9,969,-9,771,"absent"," left",1,3.455,"absent","half"
"957","tex",2,43,10,740,220,672,"absent"," left",1,3.455,"absent","half"
"958","tex",2,43,11,1113,-153,842,"absent"," left",1,3.455,"absent","half"
"959","tex",2,43,12,1109,-149,825,"absent"," left",1,3.455,"absent","half"
"960","tex",2,43,13,1056,-96,795,"absent"," left",1,3.455,"absent","half"
"961","tex",2,44,1,969,9,566,"absent"," right",1,1.7,"absent","half"
"962","tex",2,44,2,829,-131,610,"absent"," right",1,1.7,"absent","half"
"963","tex",2,44,3,521,-439,498,"absent"," right",1,1.7,"absent","half"
"964","tex",2,44,4,732,-228,654,"absent"," right",1,1.7,"absent","half"
"965","tex",2,44,5,1090,130,619,"absent"," right",1,1.7,"absent","half"
"966","tex",2,44,6,1187,227,506,"absent"," right",1,1.7,"absent","half"
"967","tex",2,45,1,952,8,562,"absent"," left",1,0.978,"absent","half"
"968","tex",2,45,2,1023,-63,562,"absent"," left",1,0.978,"absent","half"
"969","tex",2,45,3,804,156,542,"absent"," left",1,0.978,"absent","half"
"970","tex",2,45,4,1017,-57,524,"absent"," left",1,0.978,"absent","half"
"971","tex",2,45,5,1121,-161,489,"absent"," left",1,0.978,"absent","half"
"972","tex",2,46,1,950,-10,540," easy"," right",1,0.573,"present","half"
"973","tex",2,46,2,1030,70,726," easy"," right",1,0.573,"present","half"
"974","tex",2,46,3,1063,103,817," easy"," right",1,0.573,"present","half"
"975","tex",2,47,1,949,11,555," hard"," left",0,1.52,"present","half"
"976","tex",2,47,2,1065,-105,629," hard"," left",0,1.52,"present","half"
"977","tex",2,47,3,589,371,749," hard"," left",0,1.52,"present","half"
"978","tex",2,47,4,761,199,746," hard"," left",0,1.52,"present","half"
"979","tex",2,47,5,650,310,372," hard"," left",0,1.52,"present","half"
"980","tex",2,47,6,1145,-185,370," hard"," left",0,1.52,"present","half"
"981","tex",2,48,1,951,9,546,"absent"," left",1,1.287,"absent","half"
"982","tex",2,48,2,1017,-57,523,"absent"," left",1,1.287,"absent","half"
"983","tex",2,48,3,976,-16,648,"absent"," left",1,1.287,"absent","half"
"984","tex",2,48,4,564,396,401,"absent"," left",1,1.287,"absent","half"
"985","tex",2,48,5,1077,-117,421,"absent"," left",1,1.287,"absent","half"
"986","tex",2,49,1,976,-16,556,"absent"," left",1,1.041,"absent","half"
"987","tex",2,49,2,884,76,661,"absent"," left",1,1.041,"absent","half"
"988","tex",2,49,3,1237,-277,580,"absent"," left",1,1.041,"absent","half"
"989","tex",2,49,4,1192,-232,564,"absent"," left",1,1.041,"absent","half"
"990","tex",2,49,5,693,267,452,"absent"," left",1,1.041,"absent","half"
"991","tex",2,50,1,971,11,554,"absent"," right",1,2.109,"absent","half"
"992","tex",2,50,2,869,-91,565,"absent"," right",1,2.109,"absent","half"
"993","tex",2,50,3,779,-181,476,"absent"," right",1,2.109,"absent","half"
"994","tex",2,50,4,827,-133,464,"absent"," right",1,2.109,"absent","half"
"995","tex",2,50,5,542,-418,452,"absent"," right",1,2.109,"absent","half"
"996","tex",2,50,6,640,-320,695,"absent"," right",1,2.109,"absent","half"
"997","tex",2,50,7,490,-470,283,"absent"," right",1,2.109,"absent","half"
"998","tex",2,50,8,507,-453,242,"absent"," right",1,2.109,"absent","half"
"999","tex",2,50,9,462,-498,458,"absent"," right",1,2.109,"absent","half"
"1000","tex",2,50,10,501,-459,433,"absent"," right",1,2.109,"absent","half"
"1001","tex",2,51,1,967,-7,570," hard"," left",1,2.18,"present","half"
"1002","tex",2,51,2,945,15,544," hard"," left",1,2.18,"present","half"
"1003","tex",2,51,3,1038,-78,703," hard"," left",1,2.18,"present","half"
"1004","tex",2,51,4,1074,-114,752," hard"," left",1,2.18,"present","half"
"1005","tex",2,51,5,1011,-51,686," hard"," left",1,2.18,"present","half"
"1006","tex",2,52,1,983,-23,574,"absent"," left",1,2.598,"absent","half"
"1007","tex",2,52,2,963,-3,590,"absent"," left",1,2.598,"absent","half"
"1008","tex",2,52,3,1000,-40,615,"absent"," left",1,2.598,"absent","half"
"1009","tex",2,52,4,599,361,537,"absent"," left",1,2.598,"absent","half"
"1010","tex",2,52,5,971,-11,633,"absent"," left",1,2.598,"absent","half"
"1011","tex",2,52,6,1103,-143,592,"absent"," left",1,2.598,"absent","half"
"1012","tex",2,52,7,1251,-291,788,"absent"," left",1,2.598,"absent","half"
"1013","tex",2,52,8,1098,-138,687,"absent"," left",1,2.598,"absent","half"
"1014","tex",2,52,9,1035,-75,607,"absent"," left",1,2.598,"absent","half"
"1015","tex",2,52,10,1020,-60,404,"absent"," left",1,2.598,"absent","half"
"1016","tex",2,52,11,1089,-129,358,"absent"," left",1,2.598,"absent","half"
"1017","tex",2,53,1,958,2,563,"absent"," left",1,1.184,"absent","half"
"1018","tex",2,53,2,991,-31,573,"absent"," left",1,1.184,"absent","half"
"1019","tex",2,53,3,595,365,641,"absent"," left",1,1.184,"absent","half"
"1020","tex",2,53,4,741,219,845,"absent"," left",1,1.184,"absent","half"
"1021","tex",2,53,5,1060,-100,666,"absent"," left",1,1.184,"absent","half"
"1022","tex",2,54,1,954,-6,556,"absent"," right",1,1.887,"absent","half"
"1023","tex",2,54,2,980,20,562,"absent"," right",1,1.887,"absent","half"
"1024","tex",2,54,3,847,-113,555,"absent"," right",1,1.887,"absent","half"
"1025","tex",2,54,4,868,-92,471,"absent"," right",1,1.887,"absent","half"
"1026","tex",2,54,5,554,-406,427,"absent"," right",1,1.887,"absent","half"
"1027","tex",2,54,6,526,-434,397,"absent"," right",1,1.887,"absent","half"
"1028","tex",2,54,7,731,-229,634,"absent"," right",1,1.887,"absent","half"
"1029","tex",2,54,8,1112,152,803,"absent"," right",1,1.887,"absent","half"
"1030","tex",2,54,9,988,28,512,"absent"," right",1,1.887,"absent","half"
"1031","tex",2,55,1,942,18,563," easy"," left",1,0.827,"present","half"
"1032","tex",2,55,2,922,38,559," easy"," left",1,0.827,"present","half"
"1033","tex",2,55,3,807,153,697," easy"," left",1,0.827,"present","half"
"1034","tex",2,55,4,708,252,822," easy"," left",1,0.827,"present","half"
"1035","tex",2,55,5,730,230,846," easy"," left",1,0.827,"present","half"
"1036","tex",2,56,1,950,-10,585,"absent"," right",1,2.747,"absent","half"
"1037","tex",2,56,2,877,-83,780,"absent"," right",1,2.747,"absent","half"
"1038","tex",2,56,3,876,-84,636,"absent"," right",1,2.747,"absent","half"
"1039","tex",2,56,4,502,-458,503,"absent"," right",1,2.747,"absent","half"
"1040","tex",2,56,5,886,-74,567,"absent"," right",1,2.747,"absent","half"
"1041","tex",2,56,6,697,-263,565,"absent"," right",1,2.747,"absent","half"
"1042","tex",2,56,7,1202,242,748,"absent"," right",1,2.747,"absent","half"
"1043","tex",2,56,8,1233,273,528,"absent"," right",1,2.747,"absent","half"
"1044","tex",2,56,9,1161,201,497,"absent"," right",1,2.747,"absent","half"
"1045","tex",2,56,10,1411,451,527,"absent"," right",1,2.747,"absent","half"
"1046","tex",2,56,11,1481,521,529,"absent"," right",1,2.747,"absent","half"
"1047","tex",2,56,12,1316,356,747,"absent"," right",1,2.747,"absent","half"
"1048","tex",2,56,13,814,-146,642,"absent"," right",1,2.747,"absent","half"
"1049","tex",2,57,1,977,-17,596,"absent"," left",1,1.709,"absent","half"
"1050","tex",2,57,2,1353,-393,858,"absent"," left",1,1.709,"absent","half"
"1051","tex",2,57,3,1073,-113,488,"absent"," left",1,1.709,"absent","half"
"1052","tex",2,57,4,653,307,512,"absent"," left",1,1.709,"absent","half"
"1053","tex",2,57,5,935,25,548,"absent"," left",1,1.709,"absent","half"
"1054","tex",2,58,1,962,2,546,"absent"," right",1,1.487,"absent","half"
"1055","tex",2,58,2,836,-124,515,"absent"," right",1,1.487,"absent","half"
"1056","tex",2,58,3,627,-333,512,"absent"," right",1,1.487,"absent","half"
"1057","tex",2,58,4,925,-35,624,"absent"," right",1,1.487,"absent","half"
"1058","tex",2,58,5,975,15,644,"absent"," right",1,1.487,"absent","half"
"1059","tex",2,58,6,951,-9,649,"absent"," right",1,1.487,"absent","half"
"1060","tex",2,58,7,1057,97,789,"absent"," right",1,1.487,"absent","half"
"1061","tex",2,59,1,960,0,566," easy"," left",1,0.625,"present","half"
"1062","tex",2,59,2,606,354,725," easy"," left",1,0.625,"present","half"
"1063","tex",2,59,3,541,419,749," easy"," left",1,0.625,"present","half"
"1064","tex",2,60,1,961,-1,584,"absent"," left",1,1.291,"absent","half"
"1065","tex",2,60,2,729,231,627,"absent"," left",1,1.291,"absent","half"
"1066","tex",2,60,3,570,390,741,"absent"," left",1,1.291,"absent","half"
"1067","tex",2,60,4,1060,-100,743,"absent"," left",1,1.291,"absent","half"
"1068","tex",2,60,5,1133,-173,482,"absent"," left",1,1.291,"absent","half"
"1069","tex",2,61,1,975,-15,577,"absent"," left",1,3.339,"absent","half"
"1070","tex",2,61,2,966,-6,571,"absent"," left",1,3.339,"absent","half"
"1071","tex",2,61,3,1003,-43,579,"absent"," left",1,3.339,"absent","half"
"1072","tex",2,61,4,604,356,506,"absent"," left",1,3.339,"absent","half"
"1073","tex",2,61,5,1207,-247,700,"absent"," left",1,3.339,"absent","half"
"1074","tex",2,61,6,1399,-439,868,"absent"," left",1,3.339,"absent","half"
"1075","tex",2,61,7,1310,-350,853,"absent"," left",1,3.339,"absent","half"
"1076","tex",2,61,8,1217,-257,375,"absent"," left",1,3.339,"absent","half"
"1077","tex",2,61,9,647,313,250,"absent"," left",1,3.339,"absent","half"
"1078","tex",2,61,10,924,36,358,"absent"," left",1,3.339,"absent","half"
"1079","tex",2,61,11,1076,-116,409,"absent"," left",1,3.339,"absent","half"
"1080","tex",2,61,12,1028,-68,485,"absent"," left",1,3.339,"absent","half"
"1081","tex",2,62,1,983,23,569," easy"," right",1,0.533,"present","half"
"1082","tex",2,62,2,949,-11,568," easy"," right",1,0.533,"present","half"
"1083","tex",2,62,3,934,-26,585," easy"," right",1,0.533,"present","half"
"1084","tex",2,62,4,1374,414,468," easy"," right",1,0.533,"present","half"
"1085","tex",2,62,5,1407,447,465," easy"," right",1,0.533,"present","half"
"1086","tex",2,63,1,947,-13,584," easy"," right",1,0.536,"present","half"
"1087","tex",2,63,2,965,5,568," easy"," right",1,0.536,"present","half"
"1088","tex",2,63,3,1259,299,665," easy"," right",1,0.536,"present","half"
"1089","tex",2,63,4,1284,324,671," easy"," right",1,0.536,"present","half"
"1090","tex",2,64,1,985,25,608," easy"," right",1,0.492,"present","half"
"1091","tex",2,64,2,1289,329,624," easy"," right",1,0.492,"present","half"
"1092","tex",2,64,3,1307,347,603," easy"," right",1,0.492,"present","half"
"1093","tex",2,65,1,997,-37,560,"absent"," left",1,1.182,"absent","half"
"1094","tex",2,65,2,1141,-181,597,"absent"," left",1,1.182,"absent","half"
"1095","tex",2,65,3,762,198,568,"absent"," left",1,1.182,"absent","half"
"1096","tex",2,65,4,1069,-109,383,"absent"," left",1,1.182,"absent","half"
"1097","tex",2,65,5,1017,-57,342,"absent"," left",1,1.182,"absent","half"
"1098","tex",2,65,6,525,435,389,"absent"," left",1,1.182,"absent","half"
"1099","tex",2,66,1,958,-2,564," hard"," right",1,1.151,"present","half"
"1100","tex",2,66,2,973,13,555," hard"," right",1,1.151,"present","half"
"1101","tex",2,66,3,841,-119,616," hard"," right",1,1.151,"present","half"
"1102","tex",2,66,4,521,-439,573," hard"," right",1,1.151,"present","half"
"1103","tex",2,66,5,522,-438,296," hard"," right",1,1.151,"present","half"
"1104","tex",2,66,6,527,-433,254," hard"," right",1,1.151,"present","half"
"1105","tex",2,67,1,959,-1,536,"absent"," right",1,2.238,"absent","half"
"1106","tex",2,67,2,842,-118,477,"absent"," right",1,2.238,"absent","half"
"1107","tex",2,67,3,581,-379,443,"absent"," right",1,2.238,"absent","half"
"1108","tex",2,67,4,863,-97,669,"absent"," right",1,2.238,"absent","half"
"1109","tex",2,67,5,588,-372,254,"absent"," right",1,2.238,"absent","half"
"1110","tex",2,67,6,563,-397,231,"absent"," right",1,2.238,"absent","half"
"1111","tex",2,67,7,557,-403,177,"absent"," right",1,2.238,"absent","half"
"1112","tex",2,67,8,432,-528,360,"absent"," right",1,2.238,"absent","half"
"1113","tex",2,67,9,1098,138,775,"absent"," right",1,2.238,"absent","half"
"1114","tex",2,67,10,1248,288,918,"absent"," right",1,2.238,"absent","half"
"1115","tex",2,68,1,972,12,555," hard"," right",1,0.83,"present","half"
"1116","tex",2,68,2,840,-120,552," hard"," right",1,0.83,"present","half"
"1117","tex",2,68,3,736,-224,309," hard"," right",1,0.83,"present","half"
"1118","tex",2,68,4,760,-200,293," hard"," right",1,0.83,"present","half"
"1119","tex",2,69,1,943,17,539,"absent"," left",1,2.47,"absent","half"
"1120","tex",2,69,2,874,86,433,"absent"," left",1,2.47,"absent","half"
"1121","tex",2,69,3,1123,-163,774,"absent"," left",1,2.47,"absent","half"
"1122","tex",2,69,4,1052,-92,749,"absent"," left",1,2.47,"absent","half"
"1123","tex",2,69,5,1286,-326,734,"absent"," left",1,2.47,"absent","half"
"1124","tex",2,69,6,1198,-238,765,"absent"," left",1,2.47,"absent","half"
"1125","tex",2,69,7,1156,-196,484,"absent"," left",1,2.47,"absent","half"
"1126","tex",2,69,8,1391,-431,630,"absent"," left",1,2.47,"absent","half"
"1127","tex",2,69,9,708,252,685,"absent"," left",1,2.47,"absent","half"
"1128","tex",2,69,10,533,427,738,"absent"," left",1,2.47,"absent","half"
"1129","tex",2,70,1,967,7,558," easy"," right",1,0.736,"present","half"
"1130","tex",2,70,2,1186,226,502," easy"," right",1,0.736,"present","half"
"1131","tex",2,70,3,1393,433,702," easy"," right",1,0.736,"present","half"
"1132","tex",2,70,4,896,-64,591," easy"," right",1,0.736,"present","half"
"1133","tex",2,70,5,817,-143,571," easy"," right",1,0.736,"present","half"
"1134","tex",2,71,1,975,15,553,"absent"," right",1,1.616,"absent","half"
"1135","tex",2,71,2,957,-3,560,"absent"," right",1,1.616,"absent","half"
"1136","tex",2,71,3,710,-250,582,"absent"," right",1,1.616,"absent","half"
"1137","tex",2,71,4,515,-445,286,"absent"," right",1,1.616,"absent","half"
"1138","tex",2,71,5,818,-142,226,"absent"," right",1,1.616,"absent","half"
"1139","tex",2,71,6,677,-283,804,"absent"," right",1,1.616,"absent","half"
"1140","tex",2,71,7,688,-272,746,"absent"," right",1,1.616,"absent","half"
"1141","tex",2,71,8,1230,270,840,"absent"," right",1,1.616,"absent","half"
"1142","tex",2,72,1,966,-6,564,"absent"," left",1,2.225,"absent","half"
"1143","tex",2,72,2,1062,-102,564,"absent"," left",1,2.225,"absent","half"
"1144","tex",2,72,3,631,329,828,"absent"," left",1,2.225,"absent","half"
"1145","tex",2,72,4,1170,-210,579,"absent"," left",1,2.225,"absent","half"
"1146","tex",2,72,5,1005,-45,300,"absent"," left",1,2.225,"absent","half"
"1147","tex",2,72,6,1165,-205,529,"absent"," left",1,2.225,"absent","half"
"1148","tex",2,72,7,1043,-83,690,"absent"," left",1,2.225,"absent","half"
"1149","tex",2,73,1,951,-9,594," easy"," right",1,0.529,"present","half"
"1150","tex",2,73,2,847,-113,621," easy"," right",1,0.529,"present","half"
"1151","tex",2,73,3,1024,64,829," easy"," right",1,0.529,"present","half"
"1152","tex",2,74,1,973,-13,566,"absent"," left",1,1.949,"absent","half"
"1153","tex",2,74,2,1045,-85,783,"absent"," left",1,1.949,"absent","half"
"1154","tex",2,74,3,531,429,426,"absent"," left",1,1.949,"absent","half"
"1155","tex",2,74,4,984,-24,784,"absent"," left",1,1.949,"absent","half"
"1156","tex",2,74,5,1009,-49,544,"absent"," left",1,1.949,"absent","half"
"1157","tex",2,74,6,972,-12,515,"absent"," left",1,1.949,"absent","half"
"1158","tex",2,74,7,620,340,243,"absent"," left",1,1.949,"absent","half"
"1159","tex",2,74,8,1003,-43,356,"absent"," left",1,1.949,"absent","half"
"1160","tex",2,75,1,976,-16,566," hard"," left",1,0.981,"present","half"
"1161","tex",2,75,2,1038,-78,594," hard"," left",1,0.981,"present","half"
"1162","tex",2,75,3,1049,-89,420," hard"," left",1,0.981,"present","half"
"1163","tex",2,75,4,1087,-127,402," hard"," left",1,0.981,"present","half"
"1164","tex",2,76,1,920,40,491,"absent"," left",1,4.674,"absent","half"
"1165","tex",2,76,2,1015,-55,432,"absent"," left",1,4.674,"absent","half"
"1166","tex",2,76,3,1025,-65,595,"absent"," left",1,4.674,"absent","half"
"1167","tex",2,76,4,1086,-126,703,"absent"," left",1,4.674,"absent","half"
"1168","tex",2,76,5,1077,-117,623,"absent"," left",1,4.674,"absent","half"
"1169","tex",2,76,6,802,158,559,"absent"," left",1,4.674,"absent","half"
"1170","tex",2,76,7,641,319,639,"absent"," left",1,4.674,"absent","half"
"1171","tex",2,76,8,729,231,564,"absent"," left",1,4.674,"absent","half"
"1172","tex",2,76,9,1016,-56,390,"absent"," left",1,4.674,"absent","half"
"1173","tex",2,76,10,896,64,773,"absent"," left",1,4.674,"absent","half"
"1174","tex",2,76,11,985,-25,818,"absent"," left",1,4.674,"absent","half"
"1175","tex",2,76,12,1345,-385,686,"absent"," left",1,4.674,"absent","half"
"1176","tex",2,76,13,1197,-237,666,"absent"," left",1,4.674,"absent","half"
"1177","tex",2,77,1,945,15,566," hard"," left",1,0.598,"present","half"
"1178","tex",2,77,2,1043,-83,600," hard"," left",1,0.598,"present","half"
"1179","tex",2,78,1,958,-2,562,"absent"," right",1,1.5,"absent","half"
"1180","tex",2,78,2,815,-145,572,"absent"," right",1,1.5,"absent","half"
"1181","tex",2,78,3,734,-226,514,"absent"," right",1,1.5,"absent","half"
"1182","tex",2,78,4,1152,192,639,"absent"," right",1,1.5,"absent","half"
"1183","tex",2,78,5,980,20,578,"absent"," right",1,1.5,"absent","half"
"1184","tex",2,78,6,836,-124,544,"absent"," right",1,1.5,"absent","half"
"1185","tex",2,79,1,956,4,576," easy"," left",1,0.648,"present","half"
"1186","tex",2,79,2,867,93,500," easy"," left",1,0.648,"present","half"
"1187","tex",2,79,3,845,115,478," easy"," left",1,0.648,"present","half"
"1188","tex",2,79,4,869,91,484," easy"," left",1,0.648,"present","half"
"1189","tex",2,80,1,946,-14,578," hard"," right",1,1.556,"present","half"
"1190","tex",2,80,2,839,-121,527," hard"," right",1,1.556,"present","half"
"1191","tex",2,80,3,583,-377,483," hard"," right",1,1.556,"present","half"
"1192","tex",2,80,4,624,-336,279," hard"," right",1,1.556,"present","half"
"1193","tex",2,80,5,730,-230,314," hard"," right",1,1.556,"present","half"
"1194","tex",2,80,6,733,-227,290," hard"," right",1,1.556,"present","half"
"1195","tex",2,81,1,957,-3,554,"absent"," right",1,4.708,"absent","half"
"1196","tex",2,81,2,865,-95,425,"absent"," right",1,4.708,"absent","half"
"1197","tex",2,81,3,630,-330,439,"absent"," right",1,4.708,"absent","half"
"1198","tex",2,81,4,1009,49,387,"absent"," right",1,4.708,"absent","half"
"1199","tex",2,81,5,1164,204,514,"absent"," right",1,4.708,"absent","half"
"1200","tex",2,81,6,609,-351,321,"absent"," right",1,4.708,"absent","half"
"1201","tex",2,81,7,575,-385,394,"absent"," right",1,4.708,"absent","half"
"1202","tex",2,81,8,716,-244,482,"absent"," right",1,4.708,"absent","half"
"1203","tex",2,81,9,753,-207,615,"absent"," right",1,4.708,"absent","half"
"1204","tex",2,81,10,603,-357,570,"absent"," right",1,4.708,"absent","half"
"1205","tex",2,81,11,708,-252,821,"absent"," right",1,4.708,"absent","half"
"1206","tex",2,81,12,827,-133,832,"absent"," right",1,4.708,"absent","half"
"1207","tex",2,81,13,764,-196,898,"absent"," right",1,4.708,"absent","half"
"1208","tex",2,81,14,1008,48,701,"absent"," right",1,4.708,"absent","half"
"1209","tex",2,81,15,910,-50,624,"absent"," right",1,4.708,"absent","half"
"1210","tex",2,82,1,940,-20,548," easy"," right",1,0.664,"present","half"
"1211","tex",2,82,2,747,-213,473," easy"," right",1,0.664,"present","half"
"1212","tex",2,82,3,1124,164,315," easy"," right",1,0.664,"present","half"
"1213","tex",2,82,4,1160,200,290," easy"," right",1,0.664,"present","half"
"1214","tex",2,83,1,966,6,538,"absent"," right",1,2.948,"absent","half"
"1215","tex",2,83,2,869,-91,466,"absent"," right",1,2.948,"absent","half"
"1216","tex",2,83,3,754,-206,451,"absent"," right",1,2.948,"absent","half"
"1217","tex",2,83,4,533,-427,642,"absent"," right",1,2.948,"absent","half"
"1218","tex",2,83,5,611,-349,518,"absent"," right",1,2.948,"absent","half"
"1219","tex",2,83,6,758,-202,425,"absent"," right",1,2.948,"absent","half"
"1220","tex",2,83,7,662,-298,417,"absent"," right",1,2.948,"absent","half"
"1221","tex",2,83,8,868,-92,391,"absent"," right",1,2.948,"absent","half"
"1222","tex",2,83,9,1060,100,376,"absent"," right",1,2.948,"absent","half"
"1223","tex",2,83,10,1108,148,723,"absent"," right",1,2.948,"absent","half"
"1224","tex",2,83,11,899,-61,742,"absent"," right",1,2.948,"absent","half"
"1225","tex",2,84,1,972,-12,521," easy"," left",1,0.571,"present","half"
"1226","tex",2,84,2,917,43,520," easy"," left",1,0.571,"present","half"
"1227","tex",2,84,3,611,349,746," easy"," left",1,0.571,"present","half"
"1228","tex",2,84,4,575,385,710," easy"," left",1,0.571,"present","half"
"1229","tex",2,85,1,968,-8,566," easy"," left",1,0.746,"present","half"
"1230","tex",2,85,2,780,180,618," easy"," left",1,0.746,"present","half"
"1231","tex",2,85,3,804,156,278," easy"," left",1,0.746,"present","half"
"1232","tex",2,85,4,772,188,307," easy"," left",1,0.746,"present","half"
"1233","tex",2,86,1,876,84,419," hard"," left",1,0.993,"present","half"
"1234","tex",2,86,2,872,88,431," hard"," left",1,0.993,"present","half"
"1235","tex",2,86,3,1290,-330,432," hard"," left",1,0.993,"present","half"
"1236","tex",2,86,4,1386,-426,442," hard"," left",1,0.993,"present","half"
"1237","tex",2,87,1,940,-20,504,"absent"," right",1,1.97,"absent","half"
"1238","tex",2,87,2,794,-166,465,"absent"," right",1,1.97,"absent","half"
"1239","tex",2,87,3,1283,323,386,"absent"," right",1,1.97,"absent","half"
"1240","tex",2,87,4,1123,163,684,"absent"," right",1,1.97,"absent","half"
"1241","tex",2,87,5,1132,172,625,"absent"," right",1,1.97,"absent","half"
"1242","tex",2,87,6,640,-320,637,"absent"," right",1,1.97,"absent","half"
"1243","tex",2,87,7,549,-411,630,"absent"," right",1,1.97,"absent","half"
"1244","tex",2,88,1,969,9,556," easy"," right",1,0.527,"present","half"
"1245","tex",2,88,2,1232,272,591," easy"," right",1,0.527,"present","half"
"1246","tex",2,88,3,1210,250,580," easy"," right",1,0.527,"present","half"
"1247","tex",2,89,1,963,3,563," hard"," right",1,0.861,"present","half"
"1248","tex",2,89,2,787,-173,514," hard"," right",1,0.861,"present","half"
"1249","tex",2,89,3,774,-186,370," hard"," right",1,0.861,"present","half"
"1250","tex",2,90,1,939,21,531," hard"," left",1,1.756,"present","half"
"1251","tex",2,90,2,1095,-135,518," hard"," left",1,1.756,"present","half"
"1252","tex",2,90,3,1023,-63,456," hard"," left",1,1.756,"present","half"
"1253","tex",2,90,4,1012,-52,382," hard"," left",1,1.756,"present","half"
"1254","tex",2,90,5,1260,-300,570," hard"," left",1,1.756,"present","half"
"1255","tex",2,90,6,588,372,741," hard"," left",1,1.756,"present","half"
"1256","tex",2,90,7,1315,-355,570," hard"," left",1,1.756,"present","half"
"1257","tex",2,90,8,1346,-386,560," hard"," left",1,1.756,"present","half"
"1258","tex",2,91,1,956,4,559," easy"," left",0,1.327,"present","half"
"1259","tex",2,91,2,577,383,646," easy"," left",0,1.327,"present","half"
"1260","tex",2,91,3,504,456,700," easy"," left",0,1.327,"present","half"
"1261","tex",2,91,4,536,424,685," easy"," left",0,1.327,"present","half"
"1262","tex",2,91,5,530,430,695," easy"," left",0,1.327,"present","half"
"1263","tex",2,91,6,534,426,669," easy"," left",0,1.327,"present","half"
"1264","tex",2,92,1,955,-5,598,"absent"," right",1,1.4,"absent","half"
"1265","tex",2,92,2,665,-295,648,"absent"," right",1,1.4,"absent","half"
"1266","tex",2,92,3,847,-113,424,"absent"," right",1,1.4,"absent","half"
"1267","tex",2,92,4,1105,145,328,"absent"," right",1,1.4,"absent","half"
"1268","tex",2,92,5,1009,49,693,"absent"," right",1,1.4,"absent","half"
"1269","tex",2,92,6,1157,197,704,"absent"," right",1,1.4,"absent","half"
"1270","tex",2,93,1,944,16,562," hard"," left",1,0.893,"present","half"
"1271","tex",2,93,2,1097,-137,747," hard"," left",1,0.893,"present","half"
"1272","tex",2,93,3,1139,-179,881," hard"," left",1,0.893,"present","half"
"1273","tex",2,93,4,1154,-194,867," hard"," left",1,0.893,"present","half"
"1274","tex",2,94,1,966,-6,557,"absent"," left",1,3.733,"absent","half"
"1275","tex",2,94,2,949,11,593,"absent"," left",1,3.733,"absent","half"
"1276","tex",2,94,3,1021,-61,433,"absent"," left",1,3.733,"absent","half"
"1277","tex",2,94,4,537,423,610,"absent"," left",1,3.733,"absent","half"
"1278","tex",2,94,5,1062,-102,489,"absent"," left",1,3.733,"absent","half"
"1279","tex",2,94,6,1088,-128,674,"absent"," left",1,3.733,"absent","half"
"1280","tex",2,94,7,1187,-227,879,"absent"," left",1,3.733,"absent","half"
"1281","tex",2,94,8,1084,-124,855,"absent"," left",1,3.733,"absent","half"
"1282","tex",2,94,9,967,-7,541,"absent"," left",1,3.733,"absent","half"
"1283","tex",2,94,10,1014,-54,516,"absent"," left",1,3.733,"absent","half"
"1284","tex",2,94,11,998,-38,409,"absent"," left",1,3.733,"absent","half"
"1285","tex",2,94,12,1365,-405,665,"absent"," left",1,3.733,"absent","half"
"1286","tex",2,94,13,846,114,630,"absent"," left",1,3.733,"absent","half"
"1287","tex",2,95,1,951,9,572," easy"," left",0,1.818,"present","half"
"1288","tex",2,95,2,533,427,544," easy"," left",0,1.818,"present","half"
"1289","tex",2,95,3,510,450,528," easy"," left",0,1.818,"present","half"
"1290","tex",2,95,4,526,434,527," easy"," left",0,1.818,"present","half"
"1291","tex",2,95,5,783,177,487," easy"," left",0,1.818,"present","half"
"1292","tex",2,95,6,565,395,519," easy"," left",0,1.818,"present","half"
"1293","tex",2,95,7,517,443,532," easy"," left",0,1.818,"present","half"
"1294","tex",2,95,8,544,416,509," easy"," left",0,1.818,"present","half"
"1295","tex",2,95,9,519,441,520," easy"," left",0,1.818,"present","half"
"1296","tex",2,96,1,962,-2,571," hard"," left",0,1.932,"present","half"
"1297","tex",2,96,2,1089,-129,669," hard"," left",0,1.932,"present","half"
"1298","tex",2,96,3,560,400,792," hard"," left",0,1.932,"present","half"
"1299","tex",2,96,4,486,474,491," hard"," left",0,1.932,"present","half"
"1300","tex",2,96,5,893,67,324," hard"," left",0,1.932,"present","half"
"1301","tex",2,96,6,1153,-193,354," hard"," left",0,1.932,"present","half"
"1302","tex",2,96,7,1144,-184,594," hard"," left",0,1.932,"present","half"
"1303","tex",3,17,1,973,13,545," hard"," right",0,1.227,"present","half"
"1304","tex",3,17,2,932,-28,505," hard"," right",0,1.227,"present","half"
"1305","tex",3,17,3,785,-175,449," hard"," right",0,1.227,"present","half"
"1306","tex",3,17,4,1275,315,515," hard"," right",0,1.227,"present","half"
"1307","tex",3,17,5,627,-333,445," hard"," right",0,1.227,"present","half"
"1308","tex",3,18,1,969,9,505," hard"," right",0,1.064,"present","half"
"1309","tex",3,18,2,917,-43,469," hard"," right",0,1.064,"present","half"
"1310","tex",3,18,3,881,-79,499," hard"," right",0,1.064,"present","half"
"1311","tex",3,18,4,1238,278,647," hard"," right",0,1.064,"present","half"
"1312","tex",3,18,5,1437,477,680," hard"," right",0,1.064,"present","half"
"1313","tex",3,18,6,862,-98,662," hard"," right",0,1.064,"present","half"
"1314","tex",3,18,7,650,-310,500," hard"," right",0,1.064,"present","half"
"1315","tex",3,19,1,990,30,478," easy"," right",1,0.62,"present","half"
"1316","tex",3,19,2,1257,297,323," easy"," right",1,0.62,"present","half"
"1317","tex",3,19,3,1236,276,312," easy"," right",1,0.62,"present","half"
"1318","tex",3,20,1,960,0,553," hard"," right",1,1.544,"present","half"
"1319","tex",3,20,2,1031,71,492," hard"," right",1,1.544,"present","half"
"1320","tex",3,20,3,1157,197,428," hard"," right",1,1.544,"present","half"
"1321","tex",3,20,4,1313,353,469," hard"," right",1,1.544,"present","half"
"1322","tex",3,20,5,700,-260,536," hard"," right",1,1.544,"present","half"
"1323","tex",3,20,6,637,-323,486," hard"," right",1,1.544,"present","half"
"1324","tex",3,20,7,530,-430,590," hard"," right",1,1.544,"present","half"
"1325","tex",3,21,1,995,35,531," hard"," right",1,1.106,"present","half"
"1326","tex",3,21,2,960,0,501," hard"," right",1,1.106,"present","half"
"1327","tex",3,21,3,766,-194,507," hard"," right",1,1.106,"present","half"
"1328","tex",3,21,4,599,-361,675," hard"," right",1,1.106,"present","half"
"1329","tex",3,21,5,540,-420,713," hard"," right",1,1.106,"present","half"
"1330","tex",3,22,1,975,-15,564," easy"," left",1,1.59,"present","half"
"1331","tex",3,22,2,889,71,635," easy"," left",1,1.59,"present","half"
"1332","tex",3,22,3,897,63,633," easy"," left",1,1.59,"present","half"
"1333","tex",3,23,1,961,-1,537,"absent"," left",0,3.564,"absent","half"
"1334","tex",3,23,2,759,201,337,"absent"," left",0,3.564,"absent","half"
"1335","tex",3,23,3,1248,-288,556,"absent"," left",0,3.564,"absent","half"
"1336","tex",3,23,4,1195,-235,573,"absent"," left",0,3.564,"absent","half"
"1337","tex",3,23,5,773,187,630,"absent"," left",0,3.564,"absent","half"
"1338","tex",3,23,6,894,66,473,"absent"," left",0,3.564,"absent","half"
"1339","tex",3,23,7,1064,-104,497,"absent"," left",0,3.564,"absent","half"
"1340","tex",3,23,8,1007,-47,453,"absent"," left",0,3.564,"absent","half"
"1341","tex",3,23,9,1112,-152,353,"absent"," left",0,3.564,"absent","half"
"1342","tex",3,23,10,1003,-43,417,"absent"," left",0,3.564,"absent","half"
"1343","tex",3,24,1,973,-13,534," easy"," left",1,3.2,"present","half"
"1344","tex",3,24,2,581,379,411," easy"," left",1,3.2,"present","half"
