person, deadline, block, trialNum, trialType, targetPresent, targTheta, targLocX, targLocY, targVar, response, rt
15, 2, 1, 1, half, p, -7.853982e-01, NaN, NaN, NaN, 1, 1.506
15, 2, 1, , half, p, -7.853982e-01, NaN, NaN, NaN, 1, 1.337
15, 2, 1, , half, a, 116, -7.853982e-01, 23, , 5.235988e-01, 0.000, 2.196260e+00
15, 2, 1, , half, p, -7.853982e-01, NaN, NaN, NaN, 0, 2.194
15, 2, 1, , half, a, 116, -7.853982e-01, 11, , 5.235988e-01, 1.000, 1.438412e+00
15, 2, 1, , half, p, -7.853982e-01, NaN, NaN, NaN, 0, 2.191
15, 2, 1, , half, a, 116, -7.853982e-01, 12, , 5.235988e-01, -1.000, 1.568601e+00
15, 2, 1, , half, p, -7.853982e-01, NaN, NaN, NaN, 1, 1.472
15, 2, 1, 	, half, a, 116, -7.853982e-01, 14, , 2.094395e+00, -1.000, 1.302148e+00
15, 2, 1, , half, a, 116, -7.853982e-01, 20, , 2.094395e+00, -1.000, 1.628286e+00
15, 2, 1, , half, a, 116, -7.853982e-01, 25, , 2.094395e+00, 1.000, 1.217056e+00
15, 2, 1, , half, a, 116, -7.853982e-01, 21, , 2.094395e+00, 1.000, 1.361951e+00
15, 2, 1, , half, p, -7.853982e-01, NaN, NaN, NaN, -1.000000e+00, 1.515
15, 2, 1, , half, a, 116, -7.853982e-01, 25, , 5.235988e-01, 1.000, 1.281104e+00
15, 2, 1, , half, a, 116, -7.853982e-01, 27, , 2.094395e+00, 0.000, 2.193183e+00
15, 2, 1, , half, a, 116, -7.853982e-01, 12, , 2.094395e+00, -1.000, 1.735262e+00
15, 2, 1, , half, p, -7.853982e-01, NaN, NaN, NaN, 1, 1.731
15, 2, 1, , half, p, -7.853982e-01, NaN, NaN, NaN, -1.000000e+00, 1.919
15, 2, 1, , half, p, -7.853982e-01, NaN, NaN, NaN, -1.000000e+00, 1.887
15, 2, 1, , half, p, -7.853982e-01, NaN, NaN, NaN, -1.000000e+00, 1.577
15, 2, 1, , half, a, 116, -7.853982e-01, 13, , 2.094395e+00, -1.000, 1.930005e+00
15, 2, 1, , half, p, -7.853982e-01, NaN, NaN, NaN, -1.000000e+00, 1.868
15, 2, 1, , half, p, -7.853982e-01, NaN, NaN, NaN, 1, 1.869
15, 2, 1, , half, a, 116, -7.853982e-01, 10, , 5.235988e-01, -1.000, 1.960642e+00
15, 2, 1, , half, p, -7.853982e-01, NaN, NaN, NaN, 1, 1.304
15, 2, 1, , half, a, 116, -7.853982e-01, 27, , 2.094395e+00, -1.000, 1.909050e+00
15, 2, 1, , half, a, 116, -7.853982e-01, 18, , 2.094395e+00, 1.000, 1.675163e+00
15, 2, 1, , half, a, 116, -7.853982e-01, 23, , 5.235988e-01, 1.000, 1.871292e+00
15, 2, 1, , half, p, -7.853982e-01, NaN, NaN, NaN, 1, 1.867
15, 2, 1, , half, p, -7.853982e-01, NaN, NaN, NaN, 1, 1.866
15, 2, 2, 1, half, p, 7.853982e-01, NaN, NaN, NaN, 0, 2.197
15, 2, 2, , half, a, 116, 7.853982e-01, 20, , 5.235988e-01, 1.000, 1.238854e+00
15, 2, 2, , half, p, 7.853982e-01, NaN, NaN, NaN, -1.000000e+00, 1.897
15, 2, 2, , half, a, 116, 7.853982e-01, 31, , 5.235988e-01, 0.000, 2.214947e+00
15, 2, 2, , half, a, 116, 7.853982e-01, 2, , 5.235988e-01, 0.000, 2.183452e+00
15, 2, 2, , half, a, 116, 7.853982e-01, 23, , 5.235988e-01, 1.000, 1.002688e+00
15, 2, 2, , half, p, 7.853982e-01, NaN, NaN, NaN, -1.000000e+00, 1.931
15, 2, 2, , half, a, 116, 7.853982e-01, 28, , 2.094395e+00, 0.000, 2.192104e+00
15, 2, 2, 	, half, p, 7.853982e-01, NaN, NaN, NaN, 0, 2.175
15, 2, 2, , half, p, 7.853982e-01, NaN, NaN, NaN, 1, 1.247
15, 2, 2, , half, p, 7.853982e-01, NaN, NaN, NaN, 0, 2.192
15, 2, 2, , half, p, 7.853982e-01, NaN, NaN, NaN, 0, 2.175
15, 2, 2, , half, a, 116, 7.853982e-01, 28, , 5.235988e-01, 1.000, 1.118458e+00
15, 2, 2, , half, p, 7.853982e-01, NaN, NaN, NaN, 1, 1.580
15, 2, 2, , half, a, 116, 7.853982e-01, 11, , 2.094395e+00, -1.000, 1.888714e+00
15, 2, 2, , half, a, 116, 7.853982e-01, 20, , 5.235988e-01, 1.000, 1.124540e+00
15, 2, 2, , half, a, 116, 7.853982e-01, 2, , 2.094395e+00, 0.000, 2.211415e+00
15, 2, 2, , half, a, 116, 7.853982e-01, 21, , 2.094395e+00, 0.000, 2.196907e+00
15, 2, 2, , half, p, 7.853982e-01, NaN, NaN, NaN, 0, 2.196
15, 2, 2, , half, p, 7.853982e-01, NaN, NaN, NaN, 0, 2.185
15, 2, 2, , half, a, 116, 7.853982e-01, 23, , 5.235988e-01, 1.000, 1.057968e+00
15, 2, 2, , half, a, 116, 7.853982e-01, 7, , 5.235988e-01, 1.000, 9.924609e-01
15, 2, 2, , half, p, 7.853982e-01, NaN, NaN, NaN, 1, 1.091
15, 2, 2, , half, a, 116, 7.853982e-01, 27, 	, 2.094395e+00, -1.000, 1.852287e+00
15, 2, 2, , half, a, 116, 7.853982e-01, 14, , 2.094395e+00, 1.000, 1.738164e+00
15, 2, 2, , half, p, 7.853982e-01, NaN, NaN, NaN, 1, 1.530
15, 2, 2, , half, a, 116, 7.853982e-01, 4, , 2.094395e+00, 1.000, 9.726564e-01
15, 2, 2, , half, p, 7.853982e-01, NaN, NaN, NaN, 0, 2.192
15, 2, 2, , half, p, 7.853982e-01, NaN, NaN, NaN, 1, 1.665
15, 2, 2, , half, p, 7.853982e-01, NaN, NaN, NaN, 1, 1.520 