subNum	 version	 completed	 trialNo	 targPresent	 targSide	 easySide	 RT	 response	 accuracy
1	 T	 2	 1	 1	 right	 R	 0.907	 l	 1
1	 T	 2	 2	 0	 x	 L	 2.943	 l	 0
1	 T	 2	 3	 0	 x	 R	 2.648	 r	 1
1	 T	 2	 4	 1	 left	 R	 3.142	 r	 0
1	 T	 2	 5	 1	 right	 R	 1.130	 l	 1
1	 T	 2	 6	 1	 left	 L	 0.578	 l	 1
1	 T	 2	 7	 0	 x	 L	 2.448	 r	 1
1	 T	 2	 8	 0	 x	 R	 2.684	 r	 1
1	 T	 2	 9	 1	 left	 L	 0.508	 l	 1
1	 T	 2	 10	 1	 left	 L	 0.589	 l	 1
1	 T	 2	 11	 0	 x	 L	 1.730	 r	 1
1	 T	 2	 12	 1	 left	 R	 2.402	 r	 0
1	 T	 2	 13	 0	 x	 L	 3.402	 r	 1
1	 T	 2	 14	 0	 x	 L	 2.954	 r	 1
1	 T	 2	 15	 1	 right	 L	 3.201	 r	 0
1	 T	 2	 16	 1	 right	 L	 3.330	 r	 0
1	 T	 2	 17	 0	 x	 R	 2.989	 r	 1
1	 T	 2	 18	 0	 x	 L	 3.014	 l	 0
1	 T	 2	 19	 1	 right	 L	 3.460	 r	 0
1	 T	 2	 20	 1	 left	 L	 0.789	 l	 1
1	 T	 2	 21	 1	 right	 R	 0.683	 l	 1
1	 T	 2	 22	 1	 left	 L	 0.496	 l	 1
1	 T	 2	 23	 0	 x	 R	 2.437	 r	 1
1	 T	 2	 24	 1	 left	 R	 3.002	 r	 0
1	 T	 2	 25	 0	 x	 R	 3.226	 r	 1
1	 T	 2	 26	 1	 right	 L	 2.754	 l	 1
1	 T	 2	 27	 1	 left	 R	 2.354	 r	 0
1	 T	 2	 28	 0	 x	 R	 2.578	 r	 1
1	 T	 2	 29	 0	 x	 R	 3.483	 r	 1
1	 T	 2	 30	 0	 x	 L	 2.825	 l	 0
1	 T	 2	 31	 0	 x	 L	 2.990	 l	 0
1	 T	 2	 32	 0	 x	 R	 2.777	 l	 0
1	 T	 2	 33	 0	 x	 R	 2.837	 r	 1
1	 T	 2	 34	 1	 left	 R	 3.166	 r	 0
1	 T	 2	 35	 0	 x	 R	 2.436	 r	 1
1	 T	 2	 36	 1	 right	 R	 0.896	 l	 1
1	 T	 2	 37	 1	 right	 R	 0.848	 l	 1
1	 T	 2	 38	 1	 left	 L	 0.766	 l	 1
1	 T	 2	 39	 0	 x	 L	 2.308	 r	 1
1	 T	 2	 40	 1	 right	 L	 2.119	 r	 0
1	 T	 2	 41	 1	 right	 R	 0.649	 l	 1
1	 T	 2	 42	 0	 x	 R	 2.543	 r	 1
1	 T	 2	 43	 0	 x	 L	 1.731	 r	 1
1	 T	 2	 44	 1	 left	 R	 2.683	 r	 0
1	 T	 2	 45	 0	 x	 R	 2.436	 r	 1
1	 T	 2	 46	 0	 x	 L	 2.495	 r	 1
1	 T	 2	 47	 1	 right	 L	 2.919	 r	 0
1	 T	 2	 48	 1	 left	 L	 0.554	 l	 1
1	 T	 2	 49	 0	 x	 L	 2.555	 r	 1
1	 T	 2	 50	 0	 x	 R	 3.425	 r	 1
1	 T	 2	 51	 1	 right	 L	 2.543	 r	 0
1	 T	 2	 52	 1	 left	 L	 0.554	 l	 1
1	 T	 2	 53	 0	 x	 L	 2.743	 l	 0
1	 T	 2	 54	 0	 x	 L	 2.413	 r	 1
1	 T	 2	 55	 0	 x	 R	 2.425	 r	 1
1	 T	 2	 56	 1	 left	 R	 2.672	 r	 0
1	 T	 2	 57	 1	 right	 L	 2.330	 l	 1
1	 T	 2	 58	 0	 x	 L	 2.507	 r	 1
1	 T	 2	 59	 1	 left	 L	 0.507	 l	 1
1	 T	 2	 60	 0	 x	 L	 2.613	 r	 1
1	 T	 2	 61	 1	 right	 R	 0.789	 l	 1
1	 T	 2	 62	 1	 right	 L	 2.260	 r	 0
1	 T	 2	 63	 0	 x	 R	 0.789	 l	 0
1	 T	 2	 64	 1	 left	 R	 1.848	 l	 1
1	 T	 2	 65	 1	 left	 L	 0.531	 l	 1
1	 T	 2	 66	 1	 left	 L	 0.683	 l	 1
1	 T	 2	 67	 0	 x	 R	 2.378	 r	 1
1	 T	 2	 68	 0	 x	 L	 2.460	 r	 1
1	 T	 2	 69	 1	 left	 R	 2.366	 r	 0
1	 T	 2	 70	 0	 x	 L	 2.355	 r	 1
1	 T	 2	 71	 0	 x	 R	 1.872	 r	 1
1	 T	 2	 72	 1	 right	 R	 0.825	 l	 1
1	 T	 2	 73	 0	 x	 L	 1.496	 r	 1
1	 T	 2	 74	 1	 right	 L	 1.919	 r	 0
1	 T	 2	 75	 0	 x	 R	 2.519	 r	 1
1	 T	 2	 76	 0	 x	 L	 2.096	 r	 1
1	 T	 2	 77	 1	 left	 R	 1.884	 l	 1
1	 T	 2	 78	 1	 left	 R	 2.978	 r	 0
1	 T	 2	 79	 1	 left	 R	 2.966	 l	 1
1	 T	 2	 80	 1	 right	 R	 0.660	 l	 1
1	 T	 2	 81	 0	 x	 L	 2.637	 r	 1
1	 T	 2	 82	 0	 x	 R	 2.625	 l	 0
1	 T	 2	 83	 1	 right	 R	 0.460	 l	 1
1	 T	 2	 84	 1	 right	 L	 2.460	 r	 0
1	 T	 2	 85	 1	 right	 R	 0.566	 l	 1
1	 T	 2	 86	 0	 x	 R	 1.907	 r	 1
1	 T	 2	 87	 1	 left	 L	 0.543	 l	 1
1	 T	 2	 88	 0	 x	 R	 2.132	 r	 1
1	 T	 2	 89	 0	 x	 L	 2.154	 r	 1
1	 T	 2	 90	 0	 x	 R	 2.390	 l	 0
1	 T	 2	 91	 0	 x	 L	 1.649	 r	 1
1	 T	 2	 92	 0	 x	 L	 1.931	 r	 1
1	 T	 2	 93	 1	 right	 L	 2.460	 r	 0
1	 T	 2	 94	 0	 x	 R	 2.601	 r	 1
1	 T	 2	 95	 1	 right	 R	 0.848	 l	 1
1	 T	 2	 96	 0	 x	 R	 1.671	 l	 0
1	 U	 1	 1	 0	 x	 L	 10.036	 l	 0
1	 U	 1	 2	 0	 x	 R	 15.108	 r	 1
1	 U	 1	 3	 0	 x	 R	 12.025	 r	 1
1	 U	 1	 4	 1	 right	 R	 1.684	 l	 1
1	 U	 1	 5	 0	 x	 R	 11.731	 r	 1
1	 U	 1	 6	 1	 right	 R	 1.260	 l	 1
1	 U	 1	 7	 1	 right	 R	 1.601	 l	 1
1	 U	 1	 8	 0	 x	 L	 15.025	 r	 1
1	 U	 1	 9	 0	 x	 R	 12.190	 r	 1
1	 U	 1	 10	 1	 left	 R	 11.390	 r	 0
1	 U	 1	 11	 0	 x	 L	 17.708	 r	 1
1	 U	 1	 12	 1	 left	 R	 12.720	 r	 0
1	 U	 1	 13	 1	 left	 R	 13.696	 r	 0
1	 U	 1	 14	 1	 right	 R	 1.577	 l	 1
1	 U	 1	 15	 1	 right	 R	 1.225	 l	 1
1	 U	 1	 16	 0	 x	 L	 20.555	 r	 1
1	 U	 1	 17	 0	 x	 R	 31.026	 r	 1
1	 U	 1	 18	 1	 left	 L	 1.425	 l	 1
1	 U	 1	 19	 0	 x	 L	 15.002	 r	 1
1	 U	 1	 20	 0	 x	 L	 13.202	 r	 1
1	 U	 1	 21	 0	 x	 R	 17.708	 r	 1
1	 U	 1	 22	 0	 x	 R	 15.791	 r	 1
1	 U	 1	 23	 1	 left	 R	 12.272	 r	 0
1	 U	 1	 24	 0	 x	 R	 16.826	 r	 1
1	 U	 1	 25	 1	 right	 L	 18.062	 r	 0
1	 U	 1	 26	 0	 x	 L	 20.414	 r	 1
1	 U	 1	 27	 1	 right	 R	 1.908	 l	 1
1	 U	 1	 28	 0	 x	 R	 16.014	 r	 1
1	 U	 1	 29	 0	 x	 L	 11.496	 r	 1
1	 U	 1	 30	 1	 right	 L	 4.824	 l	 1
1	 U	 1	 31	 1	 right	 R	 2.107	 l	 1
1	 U	 1	 32	 1	 left	 R	 9.884	 r	 0
1	 U	 1	 33	 1	 left	 R	 4.189	 l	 1
1	 U	 1	 34	 1	 right	 L	 15.555	 r	 0
1	 U	 1	 35	 0	 x	 L	 17.037	 r	 1
1	 U	 1	 36	 0	 x	 L	 13.120	 r	 1
1	 U	 1	 37	 1	 right	 L	 11.731	 r	 0
1	 U	 1	 38	 0	 x	 R	 12.508	 r	 1
1	 U	 1	 39	 1	 left	 L	 2.848	 l	 1
1	 U	 1	 40	 1	 right	 L	 14.967	 r	 0
1	 U	 1	 41	 1	 left	 L	 0.907	 l	 1
1	 U	 1	 42	 0	 x	 R	 13.214	 r	 1
1	 U	 1	 43	 0	 x	 R	 11.732	 r	 1
1	 U	 1	 44	 0	 x	 R	 10.814	 r	 1
1	 U	 1	 45	 1	 left	 L	 0.860	 l	 1
1	 U	 1	 46	 0	 x	 R	 16.825	 r	 1
1	 U	 1	 47	 0	 x	 L	 14.579	 r	 1
1	 U	 1	 48	 0	 x	 L	 16.097	 r	 1
1	 U	 1	 49	 1	 right	 L	 17.002	 r	 0
1	 U	 1	 50	 1	 right	 R	 0.707	 l	 1
1	 U	 1	 51	 1	 left	 L	 0.719	 l	 1
1	 U	 1	 52	 1	 left	 R	 10.766	 r	 0
1	 U	 1	 53	 1	 right	 R	 0.848	 l	 1
1	 U	 1	 54	 0	 x	 R	 9.237	 r	 1
1	 U	 1	 55	 0	 x	 L	 11.367	 r	 1
1	 U	 1	 56	 0	 x	 L	 9.307	 r	 1
1	 U	 1	 57	 1	 left	 L	 0.601	 l	 1
1	 U	 1	 58	 1	 right	 L	 7.766	 r	 0
1	 U	 1	 59	 1	 right	 L	 11.143	 r	 0
1	 U	 1	 60	 1	 right	 L	 13.425	 r	 0
1	 U	 1	 61	 0	 x	 L	 12.720	 r	 1
1	 U	 1	 62	 0	 x	 L	 12.920	 r	 1
1	 U	 1	 63	 1	 right	 R	 1.036	 l	 1
1	 U	 1	 64	 1	 left	 L	 0.825	 l	 1
1	 U	 1	 65	 1	 left	 L	 0.707	 l	 1
1	 U	 1	 66	 1	 left	 L	 0.543	 l	 1
1	 U	 1	 67	 1	 right	 L	 7.826	 r	 0
1	 U	 1	 68	 0	 x	 R	 6.684	 r	 1
1	 U	 1	 69	 0	 x	 L	 8.425	 r	 1
1	 U	 1	 70	 1	 left	 R	 9.260	 r	 0
1	 U	 1	 71	 1	 left	 L	 0.777	 l	 1
1	 U	 1	 72	 1	 right	 R	 0.942	 l	 1
1	 U	 1	 73	 0	 x	 L	 9.555	 r	 1
1	 U	 1	 74	 0	 x	 L	 7.696	 r	 1
1	 U	 1	 75	 0	 x	 R	 9.048	 r	 1
1	 U	 1	 76	 0	 x	 R	 11.990	 l	 0
1	 U	 1	 77	 1	 left	 R	 15.167	 r	 0
1	 U	 1	 78	 0	 x	 L	 10.661	 r	 1
1	 U	 1	 79	 1	 right	 L	 19.226	 r	 0
1	 U	 1	 80	 1	 right	 L	 15.790	 r	 0
1	 U	 1	 81	 1	 left	 R	 6.637	 r	 0
1	 U	 1	 82	 0	 x	 L	 13.084	 r	 1
1	 U	 1	 83	 0	 x	 R	 10.226	 r	 1
1	 U	 1	 84	 0	 x	 R	 13.001	 r	 1
1	 U	 1	 85	 0	 x	 L	 11.402	 r	 1
1	 U	 1	 86	 0	 x	 R	 15.284	 r	 1
1	 U	 1	 87	 0	 x	 R	 16.296	 r	 1
1	 U	 1	 88	 1	 left	 R	 2.825	 l	 1
1	 U	 1	 89	 1	 right	 R	 0.919	 l	 1
1	 U	 1	 90	 0	 x	 R	 9.002	 r	 1
1	 U	 1	 91	 1	 left	 L	 2.037	 l	 1
1	 U	 1	 92	 0	 x	 R	 7.202	 r	 1
1	 U	 1	 93	 1	 left	 L	 0.542	 l	 1
1	 U	 1	 94	 1	 left	 R	 5.425	 l	 1
1	 U	 1	 95	 0	 x	 L	 4.272	 r	 1
1	 U	 1	 96	 0	 x	 L	 6.060	 r	 1
2	 T	 1	 1	 0	 x	 L	 2.902	 r	 1
2	 T	 1	 2	 0	 x	 L	 2.786	 r	 1
2	 T	 1	 3	 0	 x	 L	 2.836	 r	 1
2	 T	 1	 4	 0	 x	 R	 2.869	 r	 1
2	 T	 1	 5	 0	 x	 R	 3.203	 r	 1
2	 T	 1	 6	 0	 x	 R	 2.786	 r	 1
2	 T	 1	 7	 0	 x	 R	 2.853	 r	 1
2	 T	 1	 8	 0	 x	 L	 2.786	 r	 1
2	 T	 1	 9	 1	 right	 R	 0.835	 l	 1
2	 T	 1	 10	 1	 right	 R	 1.219	 l	 1
2	 T	 1	 11	 0	 x	 L	 2.703	 r	 1
2	 T	 1	 12	 0	 x	 L	 3.620	 r	 1
2	 T	 1	 13	 0	 x	 R	 2.669	 r	 1
2	 T	 1	 14	 1	 left	 R	 1.919	 l	 1
2	 T	 1	 15	 1	 right	 R	 0.752	 l	 1
2	 T	 1	 16	 1	 left	 R	 2.619	 l	 1
2	 T	 1	 17	 0	 x	 R	 2.769	 r	 1
2	 T	 1	 18	 0	 x	 L	 2.603	 r	 1
2	 T	 1	 19	 0	 x	 R	 3.069	 r	 1
2	 T	 1	 20	 1	 right	 L	 1.085	 l	 1
2	 T	 1	 21	 0	 x	 R	 2.503	 r	 1
2	 T	 1	 22	 1	 right	 L	 1.869	 l	 1
2	 T	 1	 23	 0	 x	 R	 2.353	 r	 1
2	 T	 1	 24	 0	 x	 R	 1.853	 r	 1
2	 T	 1	 25	 0	 x	 L	 2.836	 r	 1
2	 T	 1	 26	 1	 left	 L	 0.768	 l	 1
2	 T	 1	 27	 1	 right	 L	 1.569	 l	 1
2	 T	 1	 28	 0	 x	 R	 2.669	 r	 1
2	 T	 1	 29	 1	 right	 R	 0.701	 l	 1
2	 T	 1	 30	 0	 x	 R	 2.669	 r	 1
2	 T	 1	 31	 1	 right	 L	 1.419	 l	 1
2	 T	 1	 32	 1	 left	 L	 0.702	 l	 1
2	 T	 1	 33	 1	 right	 R	 0.618	 l	 1
2	 T	 1	 34	 0	 x	 R	 2.402	 r	 1
2	 T	 1	 35	 1	 left	 R	 2.069	 r	 0
2	 T	 1	 36	 0	 x	 L	 2.919	 r	 1
2	 T	 1	 37	 1	 right	 L	 0.951	 l	 1
2	 T	 1	 38	 1	 left	 L	 0.935	 l	 1
2	 T	 1	 39	 1	 right	 L	 0.902	 l	 1
2	 T	 1	 40	 1	 left	 R	 2.403	 r	 0
2	 T	 1	 41	 1	 left	 L	 0.702	 l	 1
2	 T	 1	 42	 0	 x	 L	 2.669	 r	 1
2	 T	 1	 43	 0	 x	 L	 2.869	 r	 1
2	 T	 1	 44	 1	 left	 R	 1.386	 l	 1
2	 T	 1	 45	 1	 right	 R	 0.685	 l	 1
2	 T	 1	 46	 0	 x	 R	 2.686	 r	 1
2	 T	 1	 47	 0	 x	 L	 2.535	 r	 1
2	 T	 1	 48	 1	 left	 L	 0.669	 l	 1
2	 T	 1	 49	 1	 right	 L	 1.335	 r	 0
2	 T	 1	 50	 1	 right	 R	 0.634	 l	 1
2	 T	 1	 51	 0	 x	 L	 2.586	 r	 1
2	 T	 1	 52	 1	 right	 R	 0.601	 l	 1
2	 T	 1	 53	 1	 right	 R	 0.652	 l	 1
2	 T	 1	 54	 0	 x	 L	 2.369	 r	 1
2	 T	 1	 55	 1	 right	 R	 0.551	 l	 1
2	 T	 1	 56	 0	 x	 R	 2.486	 r	 1
2	 T	 1	 57	 1	 left	 L	 0.752	 l	 1
2	 T	 1	 58	 1	 right	 R	 0.585	 l	 1
2	 T	 1	 59	 1	 left	 L	 0.568	 l	 1
2	 T	 1	 60	 0	 x	 R	 2.569	 r	 1
2	 T	 1	 61	 1	 right	 L	 2.736	 r	 0
2	 T	 1	 62	 0	 x	 R	 2.436	 r	 1
2	 T	 1	 63	 0	 x	 R	 2.686	 r	 1
2	 T	 1	 64	 1	 left	 R	 3.003	 r	 0
2	 T	 1	 65	 0	 x	 R	 2.636	 r	 1
2	 T	 1	 66	 1	 left	 R	 2.636	 r	 0
2	 T	 1	 67	 1	 left	 L	 0.735	 l	 1
2	 T	 1	 68	 1	 left	 R	 2.203	 l	 1
2	 T	 1	 69	 1	 right	 L	 3.236	 r	 0
2	 T	 1	 70	 1	 left	 R	 2.853	 r	 0
2	 T	 1	 71	 1	 right	 L	 0.935	 l	 1
2	 T	 1	 72	 0	 x	 R	 2.736	 r	 1
2	 T	 1	 73	 0	 x	 L	 2.703	 r	 1
2	 T	 1	 74	 0	 x	 R	 2.569	 r	 1
2	 T	 1	 75	 1	 left	 R	 1.085	 l	 1
2	 T	 1	 76	 1	 left	 R	 2.469	 r	 0
2	 T	 1	 77	 1	 left	 L	 0.618	 l	 1
2	 T	 1	 78	 1	 left	 L	 0.901	 l	 1
2	 T	 1	 79	 0	 x	 L	 2.819	 r	 1
2	 T	 1	 80	 1	 right	 L	 2.369	 l	 1
2	 T	 1	 81	 0	 x	 R	 2.636	 r	 1
2	 T	 1	 82	 0	 x	 R	 2.502	 r	 1
2	 T	 1	 83	 1	 right	 R	 0.818	 l	 1
2	 T	 1	 84	 0	 x	 L	 2.336	 r	 1
2	 T	 1	 85	 0	 x	 L	 1.852	 r	 1
2	 T	 1	 86	 1	 left	 R	 2.119	 r	 0
2	 T	 1	 87	 0	 x	 L	 2.452	 r	 1
2	 T	 1	 88	 0	 x	 R	 2.436	 r	 1
2	 T	 1	 89	 0	 x	 L	 2.853	 r	 1
2	 T	 1	 90	 0	 x	 L	 2.652	 r	 1
2	 T	 1	 91	 0	 x	 L	 2.703	 r	 1
2	 T	 1	 92	 1	 left	 L	 0.685	 l	 1
2	 T	 1	 93	 1	 left	 L	 0.735	 l	 1
2	 T	 1	 94	 0	 x	 L	 1.868	 r	 1
2	 T	 1	 95	 0	 x	 L	 2.503	 r	 1
2	 T	 1	 96	 1	 right	 L	 2.152	 r	 0
2	 U	 2	 1	 0	 x	 L	 3.420	 r	 1
2	 U	 2	 2	 1	 left	 L	 0.585	 l	 1
2	 U	 2	 3	 1	 left	 L	 0.651	 l	 1
2	 U	 2	 4	 0	 x	 R	 2.086	 r	 1
2	 U	 2	 5	 1	 left	 L	 0.652	 l	 1
2	 U	 2	 6	 0	 x	 R	 2.236	 r	 1
2	 U	 2	 7	 0	 x	 R	 1.969	 r	 1
2	 U	 2	 8	 1	 left	 R	 2.735	 r	 0
2	 U	 2	 9	 0	 x	 L	 4.920	 r	 1
2	 U	 2	 10	 0	 x	 L	 2.836	 r	 1
2	 U	 2	 11	 1	 left	 R	 2.519	 r	 0
2	 U	 2	 12	 1	 left	 L	 0.684	 l	 1
2	 U	 2	 13	 1	 right	 L	 2.385	 r	 0
2	 U	 2	 14	 1	 right	 L	 0.919	 l	 1
2	 U	 2	 15	 1	 right	 L	 1.068	 l	 1
2	 U	 2	 16	 0	 x	 R	 4.237	 r	 1
2	 U	 2	 17	 0	 x	 R	 4.670	 r	 1
2	 U	 2	 18	 1	 right	 R	 0.685	 l	 1
2	 U	 2	 19	 0	 x	 L	 3.119	 r	 1
2	 U	 2	 20	 0	 x	 L	 2.852	 r	 1
2	 U	 2	 21	 1	 left	 L	 0.668	 l	 1
2	 U	 2	 22	 0	 x	 L	 3.102	 r	 1
2	 U	 2	 23	 1	 left	 L	 0.618	 l	 1
2	 U	 2	 24	 1	 right	 R	 0.635	 l	 1
2	 U	 2	 25	 0	 x	 R	 3.053	 r	 1
2	 U	 2	 26	 1	 left	 R	 3.153	 r	 0
2	 U	 2	 27	 1	 right	 L	 3.220	 r	 0
2	 U	 2	 28	 0	 x	 R	 5.154	 r	 1
2	 U	 2	 29	 0	 x	 R	 3.653	 r	 1
2	 U	 2	 30	 0	 x	 R	 4.103	 r	 1
2	 U	 2	 31	 0	 x	 L	 2.819	 r	 1
2	 U	 2	 32	 1	 left	 R	 0.952	 l	 1
2	 U	 2	 33	 0	 x	 L	 2.153	 r	 1
2	 U	 2	 34	 0	 x	 R	 3.636	 r	 1
2	 U	 2	 35	 0	 x	 L	 2.436	 r	 1
2	 U	 2	 36	 1	 right	 L	 1.068	 l	 1
2	 U	 2	 37	 1	 left	 L	 0.718	 l	 1
2	 U	 2	 38	 0	 x	 L	 2.386	 r	 1
2	 U	 2	 39	 1	 right	 R	 0.685	 l	 1
2	 U	 2	 40	 1	 left	 L	 0.669	 l	 1
2	 U	 2	 41	 0	 x	 L	 2.619	 r	 1
2	 U	 2	 42	 1	 left	 L	 0.685	 l	 1
2	 U	 2	 43	 0	 x	 R	 2.169	 r	 1
2	 U	 2	 44	 0	 x	 R	 1.719	 r	 1
2	 U	 2	 45	 1	 right	 R	 0.635	 l	 1
2	 U	 2	 46	 1	 left	 R	 0.969	 l	 1
2	 U	 2	 47	 1	 right	 R	 0.585	 l	 1
2	 U	 2	 48	 1	 left	 R	 2.452	 r	 0
2	 U	 2	 49	 1	 right	 L	 0.968	 l	 1
2	 U	 2	 50	 0	 x	 L	 1.986	 r	 1
2	 U	 2	 51	 1	 right	 L	 2.302	 r	 0
2	 U	 2	 52	 1	 left	 L	 0.634	 l	 1
2	 U	 2	 53	 1	 right	 R	 0.619	 l	 1
2	 U	 2	 54	 0	 x	 L	 3.886	 r	 1
2	 U	 2	 55	 0	 x	 R	 4.187	 r	 1
2	 U	 2	 56	 0	 x	 R	 3.853	 r	 1
2	 U	 2	 57	 0	 x	 R	 3.820	 r	 1
2	 U	 2	 58	 0	 x	 L	 2.736	 r	 1
2	 U	 2	 59	 0	 x	 R	 2.402	 r	 1
2	 U	 2	 60	 1	 right	 R	 0.635	 l	 1
2	 U	 2	 61	 1	 right	 R	 0.535	 l	 1
2	 U	 2	 62	 0	 x	 R	 3.836	 r	 1
2	 U	 2	 63	 0	 x	 R	 3.486	 r	 1
2	 U	 2	 64	 1	 left	 R	 3.086	 r	 0
2	 U	 2	 65	 1	 left	 R	 1.469	 l	 1
2	 U	 2	 66	 1	 right	 L	 0.701	 l	 1
2	 U	 2	 67	 0	 x	 R	 3.436	 r	 1
2	 U	 2	 68	 0	 x	 R	 2.702	 r	 1
2	 U	 2	 69	 1	 right	 L	 1.652	 l	 1
2	 U	 2	 70	 0	 x	 L	 3.820	 r	 1
2	 U	 2	 71	 0	 x	 R	 4.020	 r	 1
2	 U	 2	 72	 0	 x	 L	 2.686	 r	 1
2	 U	 2	 73	 1	 left	 L	 0.718	 l	 1
2	 U	 2	 74	 1	 right	 R	 0.618	 l	 1
2	 U	 2	 75	 1	 right	 L	 1.752	 r	 0
2	 U	 2	 76	 1	 left	 R	 1.719	 l	 1
2	 U	 2	 77	 1	 left	 R	 3.319	 r	 0
2	 U	 2	 78	 0	 x	 L	 4.103	 r	 1
2	 U	 2	 79	 0	 x	 R	 4.187	 r	 1
2	 U	 2	 80	 1	 right	 R	 0.618	 l	 1
2	 U	 2	 81	 0	 x	 L	 3.736	 r	 1
2	 U	 2	 82	 0	 x	 L	 4.770	 r	 1
2	 U	 2	 83	 0	 x	 L	 3.302	 r	 1
2	 U	 2	 84	 1	 right	 R	 0.869	 l	 1
2	 U	 2	 85	 1	 right	 R	 0.551	 l	 1
2	 U	 2	 86	 1	 left	 R	 0.902	 l	 1
2	 U	 2	 87	 0	 x	 L	 3.353	 r	 1
2	 U	 2	 88	 1	 right	 L	 1.885	 l	 1
2	 U	 2	 89	 0	 x	 L	 3.002	 r	 1
2	 U	 2	 90	 0	 x	 L	 3.019	 r	 1
2	 U	 2	 91	 0	 x	 R	 4.020	 r	 1
2	 U	 2	 92	 0	 x	 R	 4.053	 r	 1
2	 U	 2	 93	 1	 right	 L	 1.669	 l	 1
2	 U	 2	 94	 1	 left	 L	 0.602	 l	 1
2	 U	 2	 95	 1	 left	 R	 4.436	 l	 1
2	 U	 2	 96	 0	 x	 L	 4.087	 r	 1
6	 T	 1	 1	 0	 x	 R	 0.871	 r	 1
6	 T	 1	 2	 1	 left	 R	 0.971	 r	 0
6	 T	 1	 3	 0	 x	 R	 1.261	 r	 1
6	 T	 1	 4	 0	 x	 L	 1.592	 r	 1
6	 T	 1	 5	 0	 x	 R	 1.271	 r	 1
6	 T	 1	 6	 1	 right	 R	 0.781	 l	 1
6	 T	 1	 7	 0	 x	 R	 1.171	 r	 1
6	 T	 1	 8	 1	 left	 R	 0.851	 r	 0
6	 T	 1	 9	 0	 x	 L	 1.752	 r	 1
6	 T	 1	 10	 0	 x	 R	 1.291	 r	 1
6	 T	 1	 11	 1	 left	 L	 1.122	 l	 1
6	 T	 1	 12	 1	 left	 R	 0.891	 r	 0
6	 T	 1	 13	 0	 x	 L	 1.622	 r	 1
6	 T	 1	 14	 1	 right	 R	 0.751	 l	 1
6	 T	 1	 15	 0	 x	 L	 0.961	 r	 1
6	 T	 1	 16	 1	 right	 R	 1.141	 l	 1
6	 T	 1	 17	 0	 x	 R	 0.871	 r	 1
6	 T	 1	 18	 0	 x	 R	 0.801	 r	 1
6	 T	 1	 19	 1	 right	 L	 0.851	 r	 0
6	 T	 1	 20	 1	 left	 L	 0.782	 l	 1
6	 T	 1	 21	 1	 left	 L	 0.711	 l	 1
6	 T	 1	 22	 1	 left	 R	 1.201	 r	 0
6	 T	 1	 23	 1	 right	 R	 0.712	 l	 1
6	 T	 1	 24	 0	 x	 L	 1.361	 r	 1
6	 T	 1	 25	 0	 x	 L	 1.241	 r	 1
6	 T	 1	 26	 1	 right	 L	 1.271	 r	 0
6	 T	 1	 27	 0	 x	 R	 1.291	 r	 1
6	 T	 1	 28	 0	 x	 R	 1.491	 r	 1
6	 T	 1	 29	 1	 right	 R	 0.892	 l	 1
6	 T	 1	 30	 1	 left	 R	 1.221	 r	 0
6	 T	 1	 31	 1	 left	 R	 1.651	 r	 0
6	 T	 1	 32	 0	 x	 L	 2.002	 r	 1
6	 T	 1	 33	 0	 x	 L	 1.591	 r	 1
6	 T	 1	 34	 1	 right	 L	 1.452	 r	 0
6	 T	 1	 35	 0	 x	 R	 1.611	 r	 1
6	 T	 1	 36	 0	 x	 R	 1.511	 r	 1
6	 T	 1	 37	 1	 right	 L	 1.602	 r	 0
6	 T	 1	 38	 1	 left	 R	 1.071	 r	 0
6	 T	 1	 39	 1	 left	 L	 0.802	 l	 1
6	 T	 1	 40	 1	 left	 R	 1.441	 r	 0
6	 T	 1	 41	 0	 x	 L	 1.361	 r	 1
6	 T	 1	 42	 1	 left	 L	 0.961	 l	 1
6	 T	 1	 43	 1	 left	 R	 1.422	 r	 0
6	 T	 1	 44	 0	 x	 L	 1.081	 r	 1
6	 T	 1	 45	 0	 x	 L	 1.081	 r	 1
6	 T	 1	 46	 0	 x	 L	 0.921	 r	 1
6	 T	 1	 47	 0	 x	 L	 0.921	 r	 1
6	 T	 1	 48	 1	 left	 R	 1.511	 r	 0
6	 T	 1	 49	 0	 x	 L	 0.901	 r	 1
6	 T	 1	 50	 1	 right	 R	 0.671	 l	 1
6	 T	 1	 51	 0	 x	 L	 0.981	 r	 1
6	 T	 1	 52	 0	 x	 R	 1.492	 r	 1
6	 T	 1	 53	 1	 left	 L	 0.931	 l	 1
6	 T	 1	 54	 1	 right	 L	 0.802	 r	 0
6	 T	 1	 55	 1	 left	 L	 0.732	 l	 1
6	 T	 1	 56	 1	 right	 R	 0.671	 l	 1
6	 T	 1	 57	 1	 right	 R	 0.791	 l	 1
6	 T	 1	 58	 1	 right	 L	 0.972	 r	 0
6	 T	 1	 59	 0	 x	 R	 1.321	 r	 1
6	 T	 1	 60	 0	 x	 L	 0.801	 r	 1
6	 T	 1	 61	 0	 x	 L	 0.802	 r	 1
6	 T	 1	 62	 0	 x	 L	 0.651	 r	 1
6	 T	 1	 63	 0	 x	 R	 0.921	 r	 1
6	 T	 1	 64	 1	 right	 R	 0.581	 l	 1
6	 T	 1	 65	 1	 left	 R	 0.792	 r	 0
6	 T	 1	 66	 0	 x	 R	 0.881	 r	 1
6	 T	 1	 67	 0	 x	 R	 0.811	 r	 1
6	 T	 1	 68	 0	 x	 R	 0.682	 r	 1
6	 T	 1	 69	 1	 right	 L	 1.001	 r	 0
6	 T	 1	 70	 1	 right	 L	 0.781	 r	 0
6	 T	 1	 71	 0	 x	 R	 1.482	 r	 1
6	 T	 1	 72	 0	 x	 L	 1.082	 r	 1
6	 T	 1	 73	 1	 left	 L	 0.731	 l	 1
6	 T	 1	 74	 1	 right	 R	 0.941	 l	 1
6	 T	 1	 75	 0	 x	 L	 0.912	 r	 1
6	 T	 1	 76	 1	 left	 L	 1.342	 l	 1
6	 T	 1	 77	 1	 left	 L	 0.542	 l	 1
6	 T	 1	 78	 1	 right	 L	 0.651	 r	 0
6	 T	 1	 79	 0	 x	 R	 1.502	 r	 1
6	 T	 1	 80	 1	 left	 R	 1.111	 r	 0
6	 T	 1	 81	 0	 x	 R	 1.141	 r	 1
6	 T	 1	 82	 1	 right	 L	 0.732	 r	 0
6	 T	 1	 83	 0	 x	 R	 1.102	 r	 1
6	 T	 1	 84	 0	 x	 R	 0.881	 r	 1
6	 T	 1	 85	 0	 x	 R	 0.891	 r	 1
6	 T	 1	 86	 0	 x	 L	 0.571	 r	 1
6	 T	 1	 87	 0	 x	 L	 0.682	 r	 1
6	 T	 1	 88	 0	 x	 L	 0.651	 r	 1
6	 T	 1	 89	 1	 left	 L	 0.631	 l	 1
6	 T	 1	 90	 0	 x	 L	 0.762	 r	 1
6	 T	 1	 91	 1	 left	 L	 0.711	 l	 1
6	 T	 1	 92	 1	 right	 R	 0.641	 l	 1
6	 T	 1	 93	 1	 right	 L	 0.821	 r	 0
6	 T	 1	 94	 1	 right	 R	 0.762	 l	 1
6	 T	 1	 95	 0	 x	 R	 1.131	 r	 1
6	 T	 1	 96	 1	 right	 L	 0.761	 r	 0
6	 U	 2	 1	 1	 left	 L	 1.081	 l	 1
6	 U	 2	 2	 0	 x	 R	 8.692	 r	 1
6	 U	 2	 3	 1	 right	 L	 7.652	 r	 0
6	 U	 2	 4	 1	 left	 R	 9.963	 r	 0
6	 U	 2	 5	 1	 left	 R	 13.463	 l	 1
6	 U	 2	 6	 1	 right	 L	 20.083	 l	 1
6	 U	 2	 7	 0	 x	 L	 22.923	 r	 1
6	 U	 2	 8	 0	 x	 L	 4.942	 l	 0
6	 U	 2	 9	 0	 x	 R	 24.223	 r	 1
6	 U	 2	 10	 1	 right	 R	 1.122	 l	 1
6	 U	 2	 11	 1	 left	 R	 25.814	 r	 0
6	 U	 2	 12	 0	 x	 L	 20.753	 r	 1
6	 U	 2	 13	 0	 x	 L	 22.234	 r	 1
6	 U	 2	 14	 1	 right	 R	 0.801	 l	 1
6	 U	 2	 15	 1	 left	 L	 0.981	 l	 1
6	 U	 2	 16	 0	 x	 R	 4.622	 l	 0
6	 U	 2	 17	 1	 left	 R	 26.623	 l	 1
6	 U	 2	 18	 0	 x	 R	 25.783	 r	 1
6	 U	 2	 19	 0	 x	 L	 27.424	 r	 1
6	 U	 2	 20	 1	 left	 R	 26.953	 r	 0
6	 U	 2	 21	 0	 x	 L	 21.983	 l	 0
6	 U	 2	 22	 1	 right	 R	 1.211	 l	 1
6	 U	 2	 23	 1	 left	 R	 26.113	 l	 1
6	 U	 2	 24	 1	 right	 R	 1.162	 l	 1
6	 U	 2	 25	 1	 right	 L	 31.164	 l	 1
6	 U	 2	 26	 0	 x	 R	 32.394	 r	 1
6	 U	 2	 27	 1	 right	 R	 0.841	 l	 1
6	 U	 2	 28	 0	 x	 L	 27.644	 r	 1
6	 U	 2	 29	 1	 left	 L	 0.871	 l	 1
6	 U	 2	 30	 1	 right	 L	 21.443	 r	 0
6	 U	 2	 31	 0	 x	 L	 7.641	 l	 0
6	 U	 2	 32	 0	 x	 R	 22.764	 r	 1
6	 U	 2	 33	 1	 right	 R	 0.851	 l	 1
6	 U	 2	 34	 1	 right	 L	 11.022	 l	 1
6	 U	 2	 35	 0	 x	 R	 19.983	 r	 1
6	 U	 2	 36	 1	 right	 R	 0.831	 l	 1
6	 U	 2	 37	 1	 right	 R	 0.822	 l	 1
6	 U	 2	 38	 0	 x	 R	 15.543	 r	 1
6	 U	 2	 39	 0	 x	 L	 14.193	 r	 1
6	 U	 2	 40	 0	 x	 L	 16.842	 r	 1
6	 U	 2	 41	 1	 left	 L	 0.832	 l	 1
6	 U	 2	 42	 0	 x	 L	 14.792	 r	 1
6	 U	 2	 43	 1	 right	 L	 1.951	 l	 1
6	 U	 2	 44	 1	 right	 R	 0.852	 l	 1
6	 U	 2	 45	 1	 right	 R	 0.851	 l	 1
6	 U	 2	 46	 1	 left	 L	 0.661	 l	 1
6	 U	 2	 47	 1	 left	 R	 9.572	 l	 1
6	 U	 2	 48	 1	 right	 L	 2.422	 l	 1
6	 U	 2	 49	 0	 x	 L	 6.732	 r	 1
6	 U	 2	 50	 0	 x	 L	 7.601	 r	 1
6	 U	 2	 51	 0	 x	 R	 9.983	 r	 1
6	 U	 2	 52	 0	 x	 L	 11.703	 r	 1
6	 U	 2	 53	 1	 left	 L	 0.991	 l	 1
6	 U	 2	 54	 0	 x	 L	 11.022	 r	 1
6	 U	 2	 55	 0	 x	 L	 10.132	 r	 1
6	 U	 2	 56	 0	 x	 L	 7.882	 r	 1
6	 U	 2	 57	 0	 x	 R	 6.842	 r	 1
6	 U	 2	 58	 1	 left	 R	 9.182	 r	 0
6	 U	 2	 59	 0	 x	 L	 11.192	 r	 1
6	 U	 2	 60	 0	 x	 L	 6.352	 r	 1
6	 U	 2	 61	 0	 x	 R	 9.242	 r	 1
6	 U	 2	 62	 0	 x	 R	 8.472	 r	 1
6	 U	 2	 63	 0	 x	 L	 10.042	 r	 1
6	 U	 2	 64	 1	 left	 L	 0.701	 l	 1
6	 U	 2	 65	 1	 left	 L	 0.832	 l	 1
6	 U	 2	 66	 1	 left	 L	 0.571	 l	 1
6	 U	 2	 67	 1	 right	 R	 0.671	 l	 1
6	 U	 2	 68	 1	 right	 L	 8.222	 l	 1
6	 U	 2	 69	 1	 right	 L	 3.451	 l	 1
6	 U	 2	 70	 1	 right	 L	 9.092	 r	 0
6	 U	 2	 71	 0	 x	 R	 12.043	 r	 1
6	 U	 2	 72	 0	 x	 R	 11.663	 r	 1
6	 U	 2	 73	 0	 x	 L	 12.772	 r	 1
6	 U	 2	 74	 0	 x	 R	 8.352	 r	 1
6	 U	 2	 75	 1	 left	 R	 10.382	 r	 0
6	 U	 2	 76	 0	 x	 L	 2.852	 l	 0
6	 U	 2	 77	 0	 x	 R	 12.582	 r	 1
6	 U	 2	 78	 0	 x	 R	 6.222	 r	 1
6	 U	 2	 79	 1	 left	 R	 8.842	 l	 1
6	 U	 2	 80	 0	 x	 R	 7.152	 l	 0
6	 U	 2	 81	 0	 x	 R	 7.982	 r	 1
6	 U	 2	 82	 0	 x	 R	 4.741	 r	 1
6	 U	 2	 83	 1	 right	 L	 7.542	 r	 0
6	 U	 2	 84	 1	 left	 L	 1.001	 l	 1
6	 U	 2	 85	 1	 left	 L	 0.872	 l	 1
6	 U	 2	 86	 1	 left	 R	 8.342	 l	 1
6	 U	 2	 87	 0	 x	 R	 1.911	 l	 0
6	 U	 2	 88	 1	 right	 R	 0.661	 l	 1
6	 U	 2	 89	 0	 x	 R	 8.442	 r	 1
6	 U	 2	 90	 1	 left	 R	 8.092	 r	 0
6	 U	 2	 91	 1	 left	 L	 0.952	 l	 1
6	 U	 2	 92	 0	 x	 L	 9.102	 l	 0
6	 U	 2	 93	 0	 x	 R	 15.112	 r	 1
6	 U	 2	 94	 0	 x	 R	 11.442	 r	 1
6	 U	 2	 95	 0	 x	 L	 3.272	 l	 0
6	 U	 2	 96	 1	 right	 L	 4.952	 l	 1
7	 T	 2	 1	 1	 right	 L	 2.972	 r	 0
7	 T	 2	 2	 1	 right	 R	 0.711	 l	 1
7	 T	 2	 3	 0	 x	 L	 3.011	 r	 1
7	 T	 2	 4	 0	 x	 R	 1.462	 r	 1
7	 T	 2	 5	 0	 x	 L	 1.202	 r	 1
7	 T	 2	 6	 1	 right	 L	 1.071	 r	 0
7	 T	 2	 7	 0	 x	 R	 1.982	 r	 1
7	 T	 2	 8	 1	 right	 R	 0.621	 l	 1
7	 T	 2	 9	 1	 right	 R	 0.641	 l	 1
7	 T	 2	 10	 1	 left	 L	 0.561	 l	 1
7	 T	 2	 11	 1	 left	 L	 0.502	 l	 1
7	 T	 2	 12	 0	 x	 L	 1.332	 r	 1
7	 T	 2	 13	 1	 left	 R	 1.451	 r	 0
7	 T	 2	 14	 0	 x	 R	 2.551	 r	 1
7	 T	 2	 15	 0	 x	 R	 2.122	 r	 1
7	 T	 2	 16	 1	 right	 R	 0.621	 l	 1
7	 T	 2	 17	 0	 x	 L	 1.261	 r	 1
7	 T	 2	 18	 0	 x	 R	 1.291	 r	 1
7	 T	 2	 19	 1	 right	 R	 0.661	 l	 1
7	 T	 2	 20	 0	 x	 L	 1.471	 r	 1
7	 T	 2	 21	 0	 x	 R	 0.871	 r	 1
7	 T	 2	 22	 0	 x	 R	 1.352	 r	 1
7	 T	 2	 23	 1	 right	 L	 1.722	 r	 0
7	 T	 2	 24	 1	 left	 L	 0.561	 l	 1
7	 T	 2	 25	 0	 x	 L	 2.431	 r	 1
7	 T	 2	 26	 0	 x	 L	 1.992	 r	 1
7	 T	 2	 27	 1	 left	 R	 1.771	 r	 0
7	 T	 2	 28	 0	 x	 L	 2.722	 l	 0
7	 T	 2	 29	 1	 right	 R	 0.702	 l	 1
7	 T	 2	 30	 0	 x	 R	 1.131	 r	 1
7	 T	 2	 31	 0	 x	 R	 2.172	 r	 1
7	 T	 2	 32	 0	 x	 R	 1.762	 r	 1
7	 T	 2	 33	 1	 right	 R	 0.881	 l	 1
7	 T	 2	 34	 0	 x	 R	 1.401	 r	 1
7	 T	 2	 35	 1	 left	 R	 1.381	 r	 0
7	 T	 2	 36	 0	 x	 L	 1.631	 r	 1
7	 T	 2	 37	 0	 x	 L	 2.801	 r	 1
7	 T	 2	 38	 0	 x	 L	 1.942	 r	 1
7	 T	 2	 39	 0	 x	 R	 1.701	 r	 1
7	 T	 2	 40	 1	 right	 L	 1.461	 l	 1
7	 T	 2	 41	 1	 left	 L	 0.761	 l	 1
7	 T	 2	 42	 0	 x	 L	 1.962	 r	 1
7	 T	 2	 43	 1	 left	 L	 0.721	 l	 1
7	 T	 2	 44	 1	 right	 R	 0.821	 l	 1
7	 T	 2	 45	 1	 left	 L	 0.612	 l	 1
7	 T	 2	 46	 1	 left	 R	 0.842	 l	 1
7	 T	 2	 47	 1	 left	 L	 0.711	 l	 1
7	 T	 2	 48	 0	 x	 R	 0.821	 l	 0
7	 T	 2	 49	 1	 left	 R	 0.982	 l	 1
7	 T	 2	 50	 1	 right	 R	 0.602	 l	 1
7	 T	 2	 51	 1	 left	 L	 0.722	 l	 1
7	 T	 2	 52	 0	 x	 R	 2.451	 r	 1
7	 T	 2	 53	 1	 right	 L	 1.481	 r	 0
7	 T	 2	 54	 0	 x	 R	 2.372	 r	 1
7	 T	 2	 55	 1	 left	 L	 0.531	 l	 1
7	 T	 2	 56	 0	 x	 L	 0.951	 r	 1
7	 T	 2	 57	 0	 x	 L	 1.542	 r	 1
7	 T	 2	 58	 1	 right	 R	 0.651	 l	 1
7	 T	 2	 59	 0	 x	 R	 1.261	 r	 1
7	 T	 2	 60	 0	 x	 L	 1.401	 r	 1
7	 T	 2	 61	 1	 right	 L	 1.722	 r	 0
7	 T	 2	 62	 1	 right	 L	 2.051	 r	 0
7	 T	 2	 63	 0	 x	 R	 3.012	 r	 1
7	 T	 2	 64	 0	 x	 R	 2.471	 r	 1
7	 T	 2	 65	 0	 x	 R	 1.592	 r	 1
7	 T	 2	 66	 0	 x	 L	 2.311	 r	 1
7	 T	 2	 67	 1	 left	 R	 2.341	 r	 0
7	 T	 2	 68	 0	 x	 R	 2.602	 r	 1
7	 T	 2	 69	 1	 right	 L	 2.201	 r	 0
7	 T	 2	 70	 0	 x	 R	 2.302	 r	 1
7	 T	 2	 71	 1	 left	 R	 3.001	 r	 0
7	 T	 2	 72	 0	 x	 L	 2.622	 r	 1
7	 T	 2	 73	 1	 right	 R	 0.731	 l	 1
7	 T	 2	 74	 0	 x	 L	 2.531	 r	 1
7	 T	 2	 75	 0	 x	 L	 1.812	 l	 0
7	 T	 2	 76	 1	 right	 L	 2.141	 r	 0
7	 T	 2	 77	 0	 x	 L	 2.452	 r	 1
7	 T	 2	 78	 1	 right	 L	 2.061	 r	 0
7	 T	 2	 79	 1	 left	 L	 0.622	 l	 1
7	 T	 2	 80	 1	 left	 R	 1.761	 r	 0
7	 T	 2	 81	 1	 left	 R	 1.161	 l	 1
7	 T	 2	 82	 1	 right	 R	 0.612	 l	 1
7	 T	 2	 83	 1	 left	 R	 1.262	 r	 0
7	 T	 2	 84	 1	 left	 L	 0.551	 l	 1
7	 T	 2	 85	 0	 x	 R	 2.042	 r	 1
7	 T	 2	 86	 0	 x	 R	 2.531	 r	 1
7	 T	 2	 87	 1	 left	 L	 0.601	 l	 1
7	 T	 2	 88	 0	 x	 L	 2.302	 r	 1
7	 T	 2	 89	 1	 left	 R	 1.751	 r	 0
7	 T	 2	 90	 1	 left	 R	 2.552	 r	 0
7	 T	 2	 91	 0	 x	 L	 2.141	 r	 1
7	 T	 2	 92	 1	 right	 L	 2.271	 r	 0
7	 T	 2	 93	 1	 right	 L	 2.771	 r	 0
7	 T	 2	 94	 0	 x	 L	 2.571	 r	 1
7	 T	 2	 95	 0	 x	 R	 3.132	 r	 1
7	 T	 2	 96	 0	 x	 L	 1.511	 l	 0
7	 U	 1	 1	 1	 right	 L	 3.762	 r	 0
7	 U	 1	 2	 0	 x	 L	 10.632	 r	 1
7	 U	 1	 3	 0	 x	 L	 5.141	 r	 1
7	 U	 1	 4	 0	 x	 R	 7.752	 r	 1
7	 U	 1	 5	 1	 right	 L	 7.592	 r	 0
7	 U	 1	 6	 0	 x	 R	 8.842	 r	 1
7	 U	 1	 7	 0	 x	 L	 8.272	 r	 1
7	 U	 1	 8	 0	 x	 L	 6.262	 l	 0
7	 U	 1	 9	 0	 x	 L	 8.682	 r	 1
7	 U	 1	 10	 1	 left	 L	 0.892	 l	 1
7	 U	 1	 11	 1	 left	 L	 0.741	 l	 1
7	 U	 1	 12	 1	 left	 R	 7.782	 r	 0
7	 U	 1	 13	 1	 right	 L	 8.852	 r	 0
7	 U	 1	 14	 1	 right	 L	 3.111	 l	 1
7	 U	 1	 15	 0	 x	 R	 8.622	 r	 1
7	 U	 1	 16	 0	 x	 R	 7.492	 r	 1
7	 U	 1	 17	 0	 x	 R	 8.272	 r	 1
7	 U	 1	 18	 0	 x	 L	 7.552	 r	 1
7	 U	 1	 19	 1	 right	 L	 4.131	 r	 0
7	 U	 1	 20	 0	 x	 L	 9.022	 r	 1
7	 U	 1	 21	 0	 x	 L	 7.402	 r	 1
7	 U	 1	 22	 1	 left	 R	 13.863	 r	 0
7	 U	 1	 23	 1	 right	 R	 1.071	 l	 1
7	 U	 1	 24	 0	 x	 R	 10.622	 r	 1
7	 U	 1	 25	 0	 x	 L	 8.101	 l	 0
7	 U	 1	 26	 0	 x	 R	 4.852	 r	 1
7	 U	 1	 27	 0	 x	 L	 9.882	 r	 1
7	 U	 1	 28	 1	 left	 R	 7.121	 r	 0
7	 U	 1	 29	 1	 right	 R	 0.682	 l	 1
7	 U	 1	 30	 1	 left	 R	 8.122	 r	 0
7	 U	 1	 31	 1	 left	 R	 4.431	 l	 1
7	 U	 1	 32	 0	 x	 L	 5.181	 l	 0
7	 U	 1	 33	 1	 right	 L	 6.371	 l	 1
7	 U	 1	 34	 0	 x	 R	 11.352	 r	 1
7	 U	 1	 35	 1	 right	 L	 9.112	 r	 0
7	 U	 1	 36	 0	 x	 L	 9.212	 l	 0
7	 U	 1	 37	 0	 x	 R	 4.751	 r	 1
7	 U	 1	 38	 1	 right	 L	 6.182	 l	 1
7	 U	 1	 39	 0	 x	 L	 1.401	 l	 0
7	 U	 1	 40	 1	 left	 R	 13.183	 r	 0
7	 U	 1	 41	 0	 x	 L	 2.311	 l	 0
7	 U	 1	 42	 1	 left	 R	 6.882	 r	 0
7	 U	 1	 43	 1	 right	 R	 1.171	 l	 1
7	 U	 1	 44	 1	 left	 L	 0.812	 l	 1
7	 U	 1	 45	 1	 left	 R	 9.843	 r	 0
7	 U	 1	 46	 0	 x	 R	 9.402	 r	 1
7	 U	 1	 47	 0	 x	 R	 6.162	 r	 1
7	 U	 1	 48	 0	 x	 L	 7.522	 r	 1
7	 U	 1	 49	 1	 left	 R	 6.752	 r	 0
7	 U	 1	 50	 1	 right	 L	 7.682	 r	 0
7	 U	 1	 51	 0	 x	 L	 12.282	 r	 1
7	 U	 1	 52	 1	 left	 L	 0.962	 l	 1
7	 U	 1	 53	 0	 x	 L	 9.342	 r	 1
7	 U	 1	 54	 1	 right	 R	 0.891	 l	 1
7	 U	 1	 55	 1	 left	 L	 0.761	 l	 1
7	 U	 1	 56	 0	 x	 R	 8.032	 r	 1
7	 U	 1	 57	 1	 left	 L	 0.781	 l	 1
7	 U	 1	 58	 1	 right	 R	 0.821	 l	 1
7	 U	 1	 59	 0	 x	 R	 5.982	 r	 1
7	 U	 1	 60	 1	 right	 R	 0.712	 l	 1
7	 U	 1	 61	 1	 right	 R	 0.652	 l	 1
7	 U	 1	 62	 0	 x	 L	 3.621	 r	 1
7	 U	 1	 63	 0	 x	 R	 2.432	 l	 0
7	 U	 1	 64	 0	 x	 L	 5.681	 r	 1
7	 U	 1	 65	 1	 left	 L	 0.911	 l	 1
7	 U	 1	 66	 1	 left	 L	 0.611	 l	 1
7	 U	 1	 67	 0	 x	 R	 7.442	 r	 1
7	 U	 1	 68	 0	 x	 R	 6.081	 r	 1
7	 U	 1	 69	 1	 left	 L	 0.732	 l	 1
7	 U	 1	 70	 0	 x	 R	 3.982	 r	 1
7	 U	 1	 71	 0	 x	 R	 4.012	 r	 1
7	 U	 1	 72	 0	 x	 L	 4.551	 r	 1
7	 U	 1	 73	 1	 left	 L	 0.741	 l	 1
7	 U	 1	 74	 0	 x	 R	 5.151	 r	 1
7	 U	 1	 75	 1	 right	 R	 0.711	 l	 1
7	 U	 1	 76	 1	 left	 R	 0.862	 l	 1
7	 U	 1	 77	 1	 left	 L	 0.611	 l	 1
7	 U	 1	 78	 0	 x	 R	 3.161	 r	 1
7	 U	 1	 79	 1	 right	 L	 0.802	 l	 1
7	 U	 1	 80	 0	 x	 R	 4.181	 r	 1
7	 U	 1	 81	 0	 x	 L	 1.571	 r	 1
7	 U	 1	 82	 1	 right	 R	 0.672	 l	 1
7	 U	 1	 83	 1	 right	 R	 0.561	 l	 1
7	 U	 1	 84	 0	 x	 L	 1.161	 r	 1
7	 U	 1	 85	 1	 left	 R	 0.721	 l	 1
7	 U	 1	 86	 1	 right	 L	 1.772	 r	 0
7	 U	 1	 87	 1	 left	 L	 0.681	 l	 1
7	 U	 1	 88	 0	 x	 L	 5.652	 r	 1
7	 U	 1	 89	 0	 x	 R	 3.811	 r	 1
7	 U	 1	 90	 1	 right	 L	 3.402	 r	 0
7	 U	 1	 91	 0	 x	 R	 4.621	 r	 1
7	 U	 1	 92	 1	 right	 R	 0.792	 l	 1
7	 U	 1	 93	 1	 left	 R	 5.401	 r	 0
7	 U	 1	 94	 1	 right	 R	 0.752	 l	 1
7	 U	 1	 95	 0	 x	 L	 3.852	 r	 1
7	 U	 1	 96	 0	 x	 R	 2.591	 r	 1
8	 T	 2	 1	 0	 x	 L	 6.442	 r	 1
8	 T	 2	 2	 1	 left	 R	 3.731	 r	 0
8	 T	 2	 3	 1	 left	 L	 2.412	 l	 1
8	 T	 2	 4	 1	 right	 R	 1.621	 l	 1
8	 T	 2	 5	 1	 right	 R	 2.551	 l	 1
8	 T	 2	 6	 0	 x	 L	 2.852	 r	 1
8	 T	 2	 7	 1	 right	 R	 1.251	 l	 1
8	 T	 2	 8	 0	 x	 R	 2.931	 l	 0
8	 T	 2	 9	 1	 left	 L	 1.031	 l	 1
8	 T	 2	 10	 1	 right	 L	 2.561	 r	 0
8	 T	 2	 11	 1	 left	 R	 3.662	 r	 0
8	 T	 2	 12	 1	 left	 R	 2.611	 l	 1
8	 T	 2	 13	 0	 x	 L	 2.342	 r	 1
8	 T	 2	 14	 1	 left	 L	 0.941	 l	 1
8	 T	 2	 15	 1	 right	 L	 2.891	 r	 0
8	 T	 2	 16	 0	 x	 R	 3.742	 r	 1
8	 T	 2	 17	 1	 left	 R	 3.711	 l	 1
8	 T	 2	 18	 0	 x	 R	 3.162	 r	 1
8	 T	 2	 19	 0	 x	 R	 2.391	 r	 1
8	 T	 2	 20	 0	 x	 L	 2.421	 l	 0
8	 T	 2	 21	 0	 x	 L	 3.202	 r	 1
8	 T	 2	 22	 0	 x	 R	 3.181	 r	 1
8	 T	 2	 23	 0	 x	 L	 2.492	 l	 0
8	 T	 2	 24	 0	 x	 R	 3.211	 r	 1
8	 T	 2	 25	 1	 right	 L	 2.921	 r	 0
8	 T	 2	 26	 0	 x	 L	 4.871	 r	 1
8	 T	 2	 27	 0	 x	 R	 3.122	 r	 1
8	 T	 2	 28	 1	 right	 R	 1.301	 l	 1
8	 T	 2	 29	 1	 left	 R	 2.391	 l	 1
8	 T	 2	 30	 0	 x	 R	 3.132	 r	 1
8	 T	 2	 31	 1	 left	 R	 3.881	 r	 0
8	 T	 2	 32	 0	 x	 L	 2.512	 l	 0
8	 T	 2	 33	 0	 x	 R	 2.391	 r	 1
8	 T	 2	 34	 1	 right	 R	 1.021	 l	 1
8	 T	 2	 35	 1	 right	 L	 3.242	 l	 1
8	 T	 2	 36	 0	 x	 L	 2.411	 r	 1
8	 T	 2	 37	 0	 x	 L	 2.941	 l	 0
8	 T	 2	 38	 1	 left	 R	 2.611	 l	 1
8	 T	 2	 39	 1	 right	 L	 2.561	 r	 0
8	 T	 2	 40	 0	 x	 R	 3.672	 r	 1
8	 T	 2	 41	 1	 left	 L	 0.951	 l	 1
8	 T	 2	 42	 1	 left	 L	 0.991	 l	 1
8	 T	 2	 43	 1	 right	 L	 3.002	 r	 0
8	 T	 2	 44	 0	 x	 L	 3.641	 r	 1
8	 T	 2	 45	 0	 x	 L	 2.492	 l	 0
8	 T	 2	 46	 0	 x	 R	 3.661	 r	 1
8	 T	 2	 47	 0	 x	 R	 2.762	 r	 1
8	 T	 2	 48	 0	 x	 R	 2.492	 l	 0
8	 T	 2	 49	 0	 x	 R	 3.611	 r	 1
8	 T	 2	 50	 0	 x	 L	 5.692	 r	 1
8	 T	 2	 51	 0	 x	 L	 2.311	 l	 0
8	 T	 2	 52	 1	 left	 L	 1.492	 l	 1
8	 T	 2	 53	 0	 x	 R	 2.461	 l	 0
8	 T	 2	 54	 0	 x	 L	 3.332	 r	 1
8	 T	 2	 55	 1	 right	 R	 0.881	 l	 1
8	 T	 2	 56	 0	 x	 R	 3.562	 r	 1
8	 T	 2	 57	 1	 right	 R	 0.851	 l	 1
8	 T	 2	 58	 1	 left	 R	 2.881	 r	 0
8	 T	 2	 59	 0	 x	 R	 2.422	 r	 1
8	 T	 2	 60	 1	 right	 R	 0.952	 l	 1
8	 T	 2	 61	 0	 x	 R	 3.341	 r	 1
8	 T	 2	 62	 0	 x	 L	 3.212	 r	 1
8	 T	 2	 63	 0	 x	 R	 3.271	 r	 1
8	 T	 2	 64	 1	 left	 R	 2.972	 r	 0
8	 T	 2	 65	 0	 x	 R	 2.291	 l	 0
8	 T	 2	 66	 1	 left	 R	 2.342	 r	 0
8	 T	 2	 67	 1	 left	 L	 0.902	 l	 1
8	 T	 2	 68	 1	 right	 R	 0.891	 l	 1
8	 T	 2	 69	 1	 right	 R	 0.581	 l	 1
8	 T	 2	 70	 0	 x	 L	 3.302	 r	 1
8	 T	 2	 71	 1	 left	 L	 0.721	 l	 1
8	 T	 2	 72	 1	 right	 L	 3.561	 l	 1
8	 T	 2	 73	 0	 x	 R	 3.902	 r	 1
8	 T	 2	 74	 1	 right	 L	 3.571	 r	 0
8	 T	 2	 75	 0	 x	 L	 2.962	 r	 1
8	 T	 2	 76	 0	 x	 R	 2.751	 r	 1
8	 T	 2	 77	 1	 left	 L	 0.892	 l	 1
8	 T	 2	 78	 0	 x	 R	 2.252	 r	 1
8	 T	 2	 79	 1	 right	 R	 1.011	 l	 1
8	 T	 2	 80	 0	 x	 R	 2.382	 r	 1
8	 T	 2	 81	 1	 left	 L	 0.661	 l	 1
8	 T	 2	 82	 1	 left	 R	 2.361	 l	 1
8	 T	 2	 83	 1	 left	 L	 0.631	 l	 1
8	 T	 2	 84	 0	 x	 L	 1.762	 r	 1
8	 T	 2	 85	 1	 left	 L	 0.581	 l	 1
8	 T	 2	 86	 0	 x	 L	 2.351	 r	 1
8	 T	 2	 87	 1	 right	 L	 3.142	 r	 0
8	 T	 2	 88	 1	 right	 L	 2.381	 l	 1
8	 T	 2	 89	 0	 x	 L	 2.392	 l	 0
8	 T	 2	 90	 0	 x	 L	 2.662	 r	 1
8	 T	 2	 91	 1	 right	 L	 2.941	 r	 0
8	 T	 2	 92	 1	 right	 R	 0.972	 l	 1
8	 T	 2	 93	 0	 x	 L	 2.761	 r	 1
8	 T	 2	 94	 1	 left	 R	 2.421	 r	 0
8	 T	 2	 95	 0	 x	 L	 1.402	 r	 1
8	 T	 2	 96	 1	 right	 L	 1.712	 r	 0
8	 U	 1	 1	 1	 left	 R	 12.153	 r	 0
8	 U	 1	 2	 0	 x	 R	 16.003	 r	 1
8	 U	 1	 3	 0	 x	 R	 11.832	 r	 1
8	 U	 1	 4	 0	 x	 L	 20.853	 r	 1
8	 U	 1	 5	 0	 x	 L	 14.692	 l	 0
8	 U	 1	 6	 1	 right	 R	 3.142	 l	 1
8	 U	 1	 7	 0	 x	 R	 16.042	 r	 1
8	 U	 1	 8	 0	 x	 R	 19.913	 r	 1
8	 U	 1	 9	 0	 x	 R	 18.993	 r	 1
8	 U	 1	 10	 0	 x	 R	 20.533	 r	 1
8	 U	 1	 11	 1	 left	 L	 7.612	 l	 1
8	 U	 1	 12	 1	 right	 R	 1.522	 l	 1
8	 U	 1	 13	 0	 x	 L	 13.513	 r	 1
8	 U	 1	 14	 1	 right	 R	 1.312	 l	 1
8	 U	 1	 15	 1	 right	 L	 6.531	 l	 1
8	 U	 1	 16	 0	 x	 L	 18.623	 r	 1
8	 U	 1	 17	 1	 right	 R	 1.371	 l	 1
8	 U	 1	 18	 0	 x	 R	 14.462	 r	 1
8	 U	 1	 19	 0	 x	 L	 14.122	 r	 1
8	 U	 1	 20	 0	 x	 R	 22.243	 r	 1
8	 U	 1	 21	 0	 x	 R	 16.133	 r	 1
8	 U	 1	 22	 1	 left	 R	 22.643	 r	 0
8	 U	 1	 23	 1	 right	 L	 20.403	 r	 0
8	 U	 1	 24	 0	 x	 R	 14.753	 r	 1
8	 U	 1	 25	 1	 right	 R	 1.852	 l	 1
8	 U	 1	 26	 0	 x	 R	 21.624	 r	 1
8	 U	 1	 27	 1	 left	 L	 1.561	 r	 0
8	 U	 1	 28	 0	 x	 R	 22.784	 r	 1
8	 U	 1	 29	 1	 right	 R	 2.491	 l	 1
8	 U	 1	 30	 1	 left	 R	 2.352	 l	 1
8	 U	 1	 31	 1	 right	 L	 14.453	 r	 0
8	 U	 1	 32	 1	 right	 R	 2.701	 l	 1
8	 U	 1	 33	 0	 x	 L	 20.693	 r	 1
8	 U	 1	 34	 1	 right	 L	 12.053	 r	 0
8	 U	 1	 35	 0	 x	 R	 25.984	 r	 1
8	 U	 1	 36	 1	 right	 L	 18.983	 r	 0
8	 U	 1	 37	 0	 x	 L	 4.591	 r	 1
8	 U	 1	 38	 0	 x	 R	 29.434	 r	 1
8	 U	 1	 39	 0	 x	 L	 31.043	 r	 1
8	 U	 1	 40	 0	 x	 R	 24.184	 r	 1
8	 U	 1	 41	 1	 right	 R	 1.921	 l	 1
8	 U	 1	 42	 1	 left	 R	 25.394	 r	 0
8	 U	 1	 43	 1	 right	 R	 1.372	 l	 1
8	 U	 1	 44	 0	 x	 L	 34.164	 r	 1
8	 U	 1	 45	 0	 x	 L	 39.865	 r	 1
8	 U	 1	 46	 1	 left	 R	 26.884	 r	 0
8	 U	 1	 47	 1	 left	 L	 1.682	 l	 1
8	 U	 1	 48	 0	 x	 L	 38.464	 r	 1
8	 U	 1	 49	 1	 left	 L	 1.352	 l	 1
8	 U	 1	 50	 0	 x	 L	 21.663	 r	 1
8	 U	 1	 51	 0	 x	 R	 24.184	 r	 1
8	 U	 1	 52	 1	 left	 L	 1.262	 l	 1
8	 U	 1	 53	 1	 right	 L	 24.143	 r	 0
8	 U	 1	 54	 1	 right	 L	 6.132	 l	 1
8	 U	 1	 55	 1	 right	 R	 1.841	 l	 1
8	 U	 1	 56	 1	 left	 R	 21.003	 r	 0
8	 U	 1	 57	 0	 x	 L	 37.564	 r	 1
8	 U	 1	 58	 0	 x	 L	 32.045	 r	 1
8	 U	 1	 59	 0	 x	 L	 28.334	 r	 1
8	 U	 1	 60	 0	 x	 L	 28.144	 r	 1
8	 U	 1	 61	 0	 x	 R	 27.073	 r	 1
8	 U	 1	 62	 1	 left	 L	 1.451	 l	 1
8	 U	 1	 63	 1	 left	 L	 2.072	 l	 1
8	 U	 1	 64	 1	 left	 R	 22.123	 l	 1
8	 U	 1	 65	 1	 left	 L	 1.211	 l	 1
8	 U	 1	 66	 0	 x	 R	 11.532	 r	 1
8	 U	 1	 67	 1	 right	 R	 1.252	 l	 1
8	 U	 1	 68	 1	 left	 R	 21.694	 r	 0
8	 U	 1	 69	 1	 right	 L	 31.834	 r	 0
8	 U	 1	 70	 1	 left	 R	 33.184	 r	 0
8	 U	 1	 71	 0	 x	 L	 50.776	 r	 1
8	 U	 1	 72	 0	 x	 R	 38.745	 r	 1
8	 U	 1	 73	 0	 x	 L	 25.853	 r	 1
8	 U	 1	 74	 1	 right	 R	 1.791	 l	 1
8	 U	 1	 75	 1	 left	 L	 2.101	 l	 1
8	 U	 1	 76	 0	 x	 R	 25.834	 r	 1
8	 U	 1	 77	 1	 right	 L	 28.284	 r	 0
8	 U	 1	 78	 0	 x	 L	 24.094	 r	 1
8	 U	 1	 79	 0	 x	 R	 26.273	 r	 1
8	 U	 1	 80	 0	 x	 L	 31.044	 r	 1
8	 U	 1	 81	 0	 x	 L	 18.643	 r	 1
8	 U	 1	 82	 1	 left	 L	 1.342	 l	 1
8	 U	 1	 83	 0	 x	 R	 23.603	 r	 1
8	 U	 1	 84	 1	 left	 R	 19.023	 r	 0
8	 U	 1	 85	 1	 left	 L	 1.091	 l	 1
8	 U	 1	 86	 1	 right	 L	 23.674	 l	 1
8	 U	 1	 87	 1	 right	 L	 48.965	 r	 0
8	 U	 1	 88	 0	 x	 L	 49.395	 r	 1
8	 U	 1	 89	 0	 x	 L	 31.954	 r	 1
8	 U	 1	 90	 0	 x	 L	 27.904	 r	 1
8	 U	 1	 91	 1	 left	 L	 4.432	 l	 1
8	 U	 1	 92	 0	 x	 R	 30.284	 r	 1
8	 U	 1	 93	 1	 left	 R	 39.834	 r	 0
8	 U	 1	 94	 1	 left	 R	 11.852	 l	 1
8	 U	 1	 95	 1	 right	 L	 17.693	 l	 1
8	 U	 1	 96	 0	 x	 R	 28.504	 r	 1
9	 T	 1	 1	 0	 x	 L	 2.541	 r	 1
9	 T	 1	 2	 0	 x	 L	 3.091	 r	 1
9	 T	 1	 3	 1	 right	 L	 2.222	 l	 1
9	 T	 1	 4	 1	 left	 R	 2.792	 r	 0
9	 T	 1	 5	 0	 x	 L	 3.021	 r	 1
9	 T	 1	 6	 1	 right	 L	 1.951	 l	 1
9	 T	 1	 7	 1	 left	 L	 1.522	 l	 1
9	 T	 1	 8	 0	 x	 R	 2.252	 r	 1
9	 T	 1	 9	 0	 x	 L	 2.511	 r	 1
9	 T	 1	 10	 1	 left	 L	 0.941	 l	 1
9	 T	 1	 11	 1	 left	 L	 0.691	 l	 1
9	 T	 1	 12	 0	 x	 L	 2.322	 r	 1
9	 T	 1	 13	 1	 right	 R	 0.742	 l	 1
9	 T	 1	 14	 1	 right	 R	 1.221	 l	 1
9	 T	 1	 15	 1	 left	 L	 0.711	 l	 1
9	 T	 1	 16	 1	 right	 R	 0.631	 l	 1
9	 T	 1	 17	 0	 x	 R	 2.002	 r	 1
9	 T	 1	 18	 1	 left	 R	 2.211	 r	 0
9	 T	 1	 19	 0	 x	 L	 2.151	 r	 1
9	 T	 1	 20	 1	 right	 L	 1.682	 r	 0
9	 T	 1	 21	 1	 right	 L	 1.992	 r	 0
9	 T	 1	 22	 0	 x	 R	 2.262	 r	 1
9	 T	 1	 23	 0	 x	 L	 1.521	 r	 1
9	 T	 1	 24	 1	 left	 L	 0.821	 l	 1
9	 T	 1	 25	 0	 x	 L	 1.161	 r	 1
9	 T	 1	 26	 0	 x	 R	 1.212	 r	 1
9	 T	 1	 27	 0	 x	 R	 2.221	 r	 1
9	 T	 1	 28	 1	 right	 L	 1.431	 r	 0
9	 T	 1	 29	 1	 left	 R	 2.731	 r	 0
9	 T	 1	 30	 1	 left	 R	 2.552	 r	 0
9	 T	 1	 31	 0	 x	 R	 2.641	 r	 1
9	 T	 1	 32	 1	 right	 R	 0.891	 l	 1
9	 T	 1	 33	 0	 x	 R	 2.461	 l	 0
9	 T	 1	 34	 0	 x	 R	 1.611	 r	 1
9	 T	 1	 35	 1	 left	 R	 1.111	 r	 0
9	 T	 1	 36	 0	 x	 R	 2.621	 r	 1
9	 T	 1	 37	 1	 left	 R	 1.772	 r	 0
9	 T	 1	 38	 0	 x	 R	 2.352	 r	 1
9	 T	 1	 39	 1	 left	 L	 0.821	 l	 1
9	 T	 1	 40	 0	 x	 R	 2.561	 r	 1
9	 T	 1	 41	 0	 x	 R	 2.422	 r	 1
9	 T	 1	 42	 0	 x	 L	 1.362	 r	 1
9	 T	 1	 43	 0	 x	 R	 1.661	 r	 1
9	 T	 1	 44	 1	 right	 L	 1.271	 r	 0
9	 T	 1	 45	 0	 x	 L	 2.282	 r	 1
9	 T	 1	 46	 1	 right	 L	 1.502	 r	 0
9	 T	 1	 47	 0	 x	 L	 2.971	 r	 1
9	 T	 1	 48	 0	 x	 L	 2.561	 r	 1
9	 T	 1	 49	 0	 x	 R	 1.912	 r	 1
9	 T	 1	 50	 0	 x	 R	 2.351	 r	 1
9	 T	 1	 51	 1	 right	 L	 2.441	 r	 0
9	 T	 1	 52	 0	 x	 R	 2.462	 r	 1
9	 T	 1	 53	 0	 x	 L	 2.382	 r	 1
9	 T	 1	 54	 0	 x	 L	 2.101	 r	 1
9	 T	 1	 55	 0	 x	 R	 1.751	 r	 1
9	 T	 1	 56	 1	 right	 L	 1.272	 r	 0
9	 T	 1	 57	 1	 left	 R	 2.471	 r	 0
9	 T	 1	 58	 0	 x	 L	 2.382	 r	 1
9	 T	 1	 59	 1	 right	 R	 1.062	 l	 1
9	 T	 1	 60	 0	 x	 L	 1.771	 r	 1
9	 T	 1	 61	 1	 left	 L	 0.631	 l	 1
9	 T	 1	 62	 0	 x	 R	 1.751	 l	 0
9	 T	 1	 63	 1	 left	 L	 0.951	 l	 1
9	 T	 1	 64	 1	 left	 R	 2.082	 r	 0
9	 T	 1	 65	 1	 right	 R	 0.611	 l	 1
9	 T	 1	 66	 0	 x	 L	 2.621	 r	 1
9	 T	 1	 67	 1	 left	 L	 0.881	 l	 1
9	 T	 1	 68	 0	 x	 R	 1.892	 r	 1
9	 T	 1	 69	 1	 left	 R	 1.671	 r	 0
9	 T	 1	 70	 1	 left	 L	 0.701	 l	 1
9	 T	 1	 71	 1	 right	 L	 1.911	 r	 0
9	 T	 1	 72	 0	 x	 L	 2.652	 r	 1
9	 T	 1	 73	 0	 x	 L	 2.401	 r	 1
9	 T	 1	 74	 1	 right	 R	 0.661	 l	 1
9	 T	 1	 75	 1	 left	 R	 2.201	 r	 0
9	 T	 1	 76	 1	 right	 L	 1.592	 r	 0
9	 T	 1	 77	 1	 right	 R	 0.852	 l	 1
9	 T	 1	 78	 1	 left	 L	 0.651	 l	 1
9	 T	 1	 79	 1	 right	 R	 0.591	 l	 1
9	 T	 1	 80	 1	 right	 R	 0.731	 l	 1
9	 T	 1	 81	 1	 left	 R	 1.641	 r	 0
9	 T	 1	 82	 0	 x	 R	 2.622	 r	 1
9	 T	 1	 83	 0	 x	 L	 1.921	 r	 1
9	 T	 1	 84	 0	 x	 R	 1.571	 l	 0
9	 T	 1	 85	 0	 x	 L	 1.181	 r	 1
9	 T	 1	 86	 0	 x	 R	 1.712	 r	 1
9	 T	 1	 87	 0	 x	 L	 1.411	 r	 1
9	 T	 1	 88	 0	 x	 R	 1.911	 r	 1
9	 T	 1	 89	 1	 right	 R	 0.821	 l	 1
9	 T	 1	 90	 1	 left	 R	 1.692	 r	 0
9	 T	 1	 91	 0	 x	 L	 2.002	 r	 1
9	 T	 1	 92	 1	 right	 R	 0.771	 l	 1
9	 T	 1	 93	 0	 x	 L	 1.791	 r	 1
9	 T	 1	 94	 1	 left	 L	 0.851	 l	 1
9	 T	 1	 95	 0	 x	 R	 1.522	 r	 1
9	 T	 1	 96	 1	 right	 L	 1.411	 r	 0
9	 U	 2	 1	 0	 x	 L	 4.681	 r	 1
9	 U	 2	 2	 0	 x	 L	 2.852	 r	 1
9	 U	 2	 3	 1	 right	 L	 3.151	 r	 0
9	 U	 2	 4	 1	 right	 R	 0.741	 l	 1
9	 U	 2	 5	 1	 left	 L	 0.652	 l	 1
9	 U	 2	 6	 1	 right	 R	 0.702	 l	 1
9	 U	 2	 7	 0	 x	 R	 5.051	 l	 0
9	 U	 2	 8	 1	 right	 L	 4.691	 l	 1
9	 U	 2	 9	 0	 x	 L	 4.561	 r	 1
9	 U	 2	 10	 0	 x	 R	 3.071	 r	 1
9	 U	 2	 11	 1	 right	 L	 3.892	 r	 0
9	 U	 2	 12	 0	 x	 L	 4.331	 r	 1
9	 U	 2	 13	 0	 x	 L	 3.972	 r	 1
9	 U	 2	 14	 1	 left	 L	 0.972	 l	 1
9	 U	 2	 15	 1	 right	 R	 1.201	 l	 1
9	 U	 2	 16	 1	 left	 R	 3.931	 r	 0
9	 U	 2	 17	 0	 x	 R	 4.352	 r	 1
9	 U	 2	 18	 1	 left	 L	 0.591	 l	 1
9	 U	 2	 19	 0	 x	 R	 2.931	 r	 1
9	 U	 2	 20	 0	 x	 L	 2.701	 r	 1
9	 U	 2	 21	 1	 left	 L	 0.671	 l	 1
9	 U	 2	 22	 1	 right	 R	 0.721	 l	 1
9	 U	 2	 23	 0	 x	 L	 4.131	 r	 1
9	 U	 2	 24	 1	 left	 L	 0.821	 l	 1
9	 U	 2	 25	 0	 x	 L	 4.772	 r	 1
9	 U	 2	 26	 1	 right	 L	 5.021	 r	 0
9	 U	 2	 27	 0	 x	 R	 4.362	 r	 1
9	 U	 2	 28	 1	 left	 R	 4.611	 r	 0
9	 U	 2	 29	 0	 x	 L	 4.882	 r	 1
9	 U	 2	 30	 1	 left	 L	 0.832	 l	 1
9	 U	 2	 31	 1	 left	 R	 3.661	 r	 0
9	 U	 2	 32	 0	 x	 R	 3.581	 r	 1
9	 U	 2	 33	 0	 x	 R	 4.502	 r	 1
9	 U	 2	 34	 1	 right	 L	 4.631	 r	 0
9	 U	 2	 35	 1	 right	 R	 0.742	 l	 1
9	 U	 2	 36	 1	 left	 R	 4.101	 r	 0
9	 U	 2	 37	 0	 x	 R	 3.241	 r	 1
9	 U	 2	 38	 1	 right	 R	 0.752	 l	 1
9	 U	 2	 39	 0	 x	 L	 2.921	 r	 1
9	 U	 2	 40	 1	 left	 R	 2.781	 r	 0
9	 U	 2	 41	 0	 x	 L	 3.632	 r	 1
9	 U	 2	 42	 0	 x	 L	 4.142	 r	 1
9	 U	 2	 43	 0	 x	 L	 4.491	 r	 1
9	 U	 2	 44	 1	 left	 R	 4.162	 r	 0
9	 U	 2	 45	 1	 left	 L	 0.722	 l	 1
9	 U	 2	 46	 0	 x	 R	 3.741	 r	 1
9	 U	 2	 47	 0	 x	 L	 4.222	 r	 1
9	 U	 2	 48	 0	 x	 R	 3.932	 r	 1
9	 U	 2	 49	 0	 x	 L	 3.221	 r	 1
9	 U	 2	 50	 1	 right	 R	 0.671	 l	 1
9	 U	 2	 51	 0	 x	 L	 4.622	 r	 1
9	 U	 2	 52	 0	 x	 R	 4.261	 r	 1
9	 U	 2	 53	 1	 right	 R	 0.522	 l	 1
9	 U	 2	 54	 1	 left	 L	 0.852	 l	 1
9	 U	 2	 55	 1	 left	 R	 5.391	 r	 0
9	 U	 2	 56	 0	 x	 R	 4.872	 r	 1
9	 U	 2	 57	 1	 right	 R	 0.801	 l	 1
9	 U	 2	 58	 0	 x	 R	 3.641	 r	 1
9	 U	 2	 59	 0	 x	 L	 5.192	 r	 1
9	 U	 2	 60	 0	 x	 R	 4.431	 r	 1
9	 U	 2	 61	 1	 left	 R	 1.321	 l	 1
9	 U	 2	 62	 1	 right	 L	 4.162	 r	 0
9	 U	 2	 63	 0	 x	 R	 3.201	 r	 1
9	 U	 2	 64	 1	 right	 R	 0.601	 l	 1
9	 U	 2	 65	 0	 x	 R	 4.082	 r	 1
9	 U	 2	 66	 0	 x	 L	 3.711	 r	 1
9	 U	 2	 67	 0	 x	 R	 3.361	 r	 1
9	 U	 2	 68	 1	 left	 L	 0.961	 l	 1
9	 U	 2	 69	 1	 right	 L	 1.711	 l	 1
9	 U	 2	 70	 0	 x	 R	 3.571	 r	 1
9	 U	 2	 71	 0	 x	 R	 2.581	 r	 1
9	 U	 2	 72	 0	 x	 L	 2.682	 r	 1
9	 U	 2	 73	 0	 x	 L	 4.361	 r	 1
9	 U	 2	 74	 0	 x	 L	 4.511	 r	 1
9	 U	 2	 75	 0	 x	 L	 3.331	 r	 1
9	 U	 2	 76	 1	 left	 R	 2.941	 l	 1
9	 U	 2	 77	 1	 right	 L	 4.582	 r	 0
9	 U	 2	 78	 1	 right	 L	 5.831	 r	 0
9	 U	 2	 79	 1	 left	 L	 0.942	 l	 1
9	 U	 2	 80	 0	 x	 R	 3.512	 r	 1
9	 U	 2	 81	 0	 x	 L	 3.351	 r	 1
9	 U	 2	 82	 0	 x	 L	 4.172	 r	 1
9	 U	 2	 83	 1	 left	 L	 0.601	 l	 1
9	 U	 2	 84	 0	 x	 R	 4.321	 r	 1
9	 U	 2	 85	 0	 x	 R	 3.521	 r	 1
9	 U	 2	 86	 0	 x	 R	 3.672	 r	 1
9	 U	 2	 87	 1	 right	 L	 5.112	 r	 0
9	 U	 2	 88	 1	 right	 L	 3.782	 r	 0
9	 U	 2	 89	 1	 right	 L	 4.271	 r	 0
9	 U	 2	 90	 1	 right	 R	 0.781	 l	 1
9	 U	 2	 91	 1	 left	 R	 3.882	 r	 0
9	 U	 2	 92	 1	 right	 R	 0.661	 l	 1
9	 U	 2	 93	 1	 left	 R	 2.531	 r	 0
9	 U	 2	 94	 0	 x	 R	 4.892	 r	 1
9	 U	 2	 95	 1	 left	 L	 0.801	 l	 1
9	 U	 2	 96	 1	 left	 R	 4.611	 r	 0
10	 T	 2	 1	 1	 right	 L	 3.841	 r	 0
10	 T	 2	 2	 1	 left	 R	 1.121	 l	 1
10	 T	 2	 3	 1	 left	 L	 0.701	 l	 1
10	 T	 2	 4	 1	 right	 R	 0.802	 l	 1
10	 T	 2	 5	 1	 right	 R	 1.132	 l	 1
10	 T	 2	 6	 0	 x	 R	 1.041	 r	 1
10	 T	 2	 7	 1	 left	 R	 1.461	 r	 0
10	 T	 2	 8	 0	 x	 R	 1.891	 r	 1
10	 T	 2	 9	 1	 right	 R	 0.832	 l	 1
10	 T	 2	 10	 1	 left	 R	 1.202	 r	 0
10	 T	 2	 11	 1	 left	 L	 1.101	 l	 1
10	 T	 2	 12	 1	 left	 R	 1.971	 r	 0
10	 T	 2	 13	 0	 x	 R	 1.881	 r	 1
10	 T	 2	 14	 1	 left	 L	 1.002	 l	 1
10	 T	 2	 15	 1	 left	 L	 0.671	 l	 1
10	 T	 2	 16	 1	 right	 R	 0.711	 l	 1
10	 T	 2	 17	 0	 x	 R	 2.051	 r	 1
10	 T	 2	 18	 0	 x	 R	 1.922	 l	 0
10	 T	 2	 19	 0	 x	 L	 2.122	 r	 1
10	 T	 2	 20	 0	 x	 L	 2.031	 r	 1
10	 T	 2	 21	 1	 left	 R	 2.661	 r	 0
10	 T	 2	 22	 0	 x	 R	 1.792	 r	 1
10	 T	 2	 23	 0	 x	 L	 1.472	 r	 1
10	 T	 2	 24	 0	 x	 R	 1.361	 l	 0
10	 T	 2	 25	 0	 x	 L	 0.131	 r	 1
10	 T	 2	 26	 1	 right	 L	 1.922	 r	 0
10	 T	 2	 27	 0	 x	 L	 2.202	 l	 0
10	 T	 2	 28	 0	 x	 R	 1.901	 r	 1
10	 T	 2	 29	 1	 right	 L	 2.681	 r	 0
10	 T	 2	 30	 0	 x	 L	 1.882	 r	 1
10	 T	 2	 31	 1	 right	 L	 5.701	 r	 0
10	 T	 2	 32	 0	 x	 L	 2.732	 r	 1
10	 T	 2	 33	 0	 x	 R	 3.621	 r	 1
10	 T	 2	 34	 1	 left	 R	 2.762	 r	 0
10	 T	 2	 35	 1	 right	 L	 0.911	 l	 1
10	 T	 2	 36	 1	 right	 L	 1.541	 r	 0
10	 T	 2	 37	 1	 left	 R	 2.561	 l	 1
10	 T	 2	 38	 1	 right	 R	 0.732	 l	 1
10	 T	 2	 39	 0	 x	 L	 2.002	 r	 1
10	 T	 2	 40	 0	 x	 L	 2.031	 r	 1
10	 T	 2	 41	 1	 right	 L	 2.201	 r	 0
10	 T	 2	 42	 0	 x	 L	 2.352	 r	 1
10	 T	 2	 43	 1	 left	 R	 1.602	 l	 1
10	 T	 2	 44	 0	 x	 R	 1.231	 r	 1
10	 T	 2	 45	 0	 x	 R	 2.651	 r	 1
10	 T	 2	 46	 0	 x	 L	 2.581	 r	 1
10	 T	 2	 47	 0	 x	 L	 3.052	 l	 0
10	 T	 2	 48	 1	 right	 R	 0.691	 l	 1
10	 T	 2	 49	 0	 x	 L	 3.392	 r	 1
10	 T	 2	 50	 1	 right	 R	 0.792	 l	 1
10	 T	 2	 51	 1	 right	 R	 0.751	 l	 1
10	 T	 2	 52	 1	 left	 L	 0.941	 l	 1
10	 T	 2	 53	 0	 x	 R	 3.231	 r	 1
10	 T	 2	 54	 1	 right	 L	 1.492	 r	 0
10	 T	 2	 55	 1	 right	 R	 0.742	 l	 1
10	 T	 2	 56	 0	 x	 L	 1.871	 r	 1
10	 T	 2	 57	 0	 x	 R	 1.131	 r	 1
10	 T	 2	 58	 1	 left	 L	 0.691	 l	 1
10	 T	 2	 59	 0	 x	 R	 1.561	 r	 1
10	 T	 2	 60	 1	 right	 R	 0.652	 l	 1
10	 T	 2	 61	 1	 right	 R	 0.691	 l	 1
10	 T	 2	 62	 0	 x	 L	 2.411	 r	 1
10	 T	 2	 63	 1	 right	 L	 2.601	 l	 1
10	 T	 2	 64	 0	 x	 L	 2.002	 r	 1
10	 T	 2	 65	 0	 x	 R	 2.551	 r	 1
10	 T	 2	 66	 1	 right	 L	 1.611	 r	 0
10	 T	 2	 67	 1	 left	 R	 1.691	 l	 1
10	 T	 2	 68	 0	 x	 R	 2.922	 r	 1
10	 T	 2	 69	 1	 right	 R	 0.632	 l	 1
10	 T	 2	 70	 1	 left	 L	 0.731	 l	 1
10	 T	 2	 71	 1	 left	 R	 2.051	 r	 0
10	 T	 2	 72	 1	 left	 L	 0.591	 l	 1
10	 T	 2	 73	 0	 x	 L	 1.912	 r	 1
10	 T	 2	 74	 1	 right	 L	 1.972	 l	 1
10	 T	 2	 75	 1	 right	 L	 1.871	 r	 0
10	 T	 2	 76	 0	 x	 R	 1.911	 r	 1
10	 T	 2	 77	 0	 x	 L	 1.572	 r	 1
10	 T	 2	 78	 0	 x	 R	 1.801	 r	 1
10	 T	 2	 79	 0	 x	 L	 1.931	 l	 0
10	 T	 2	 80	 0	 x	 R	 2.502	 r	 1
10	 T	 2	 81	 0	 x	 R	 2.042	 r	 1
10	 T	 2	 82	 0	 x	 L	 2.731	 r	 1
10	 T	 2	 83	 0	 x	 R	 2.331	 l	 0
10	 T	 2	 84	 0	 x	 L	 2.501	 r	 1
10	 T	 2	 85	 0	 x	 L	 2.782	 r	 1
10	 T	 2	 86	 0	 x	 L	 2.461	 l	 0
10	 T	 2	 87	 1	 left	 R	 1.541	 r	 0
10	 T	 2	 88	 1	 left	 L	 0.661	 l	 1
10	 T	 2	 89	 1	 left	 L	 0.581	 l	 1
10	 T	 2	 90	 0	 x	 R	 2.632	 r	 1
10	 T	 2	 91	 1	 left	 L	 0.651	 l	 1
10	 T	 2	 92	 0	 x	 L	 2.481	 l	 0
10	 T	 2	 93	 1	 left	 L	 0.532	 l	 1
10	 T	 2	 94	 0	 x	 R	 2.432	 r	 1
10	 T	 2	 95	 1	 left	 R	 2.411	 r	 0
10	 T	 2	 96	 0	 x	 R	 2.381	 r	 1
10	 U	 1	 1	 1	 left	 L	 2.162	 l	 1
10	 U	 1	 2	 0	 x	 L	 3.122	 r	 1
10	 U	 1	 3	 1	 left	 R	 5.262	 l	 1
10	 U	 1	 4	 0	 x	 R	 11.303	 r	 1
10	 U	 1	 5	 0	 x	 L	 15.143	 r	 1
10	 U	 1	 6	 1	 right	 R	 3.021	 l	 1
10	 U	 1	 7	 0	 x	 L	 8.282	 r	 1
10	 U	 1	 8	 0	 x	 R	 11.672	 r	 1
10	 U	 1	 9	 1	 right	 R	 1.351	 l	 1
10	 U	 1	 10	 1	 right	 L	 3.241	 l	 1
10	 U	 1	 11	 1	 left	 R	 10.202	 l	 1
10	 U	 1	 12	 1	 left	 R	 8.092	 l	 1
10	 U	 1	 13	 1	 left	 L	 1.011	 l	 1
10	 U	 1	 14	 1	 right	 L	 7.181	 l	 1
10	 U	 1	 15	 1	 left	 R	 8.792	 r	 0
10	 U	 1	 16	 1	 right	 R	 1.091	 l	 1
10	 U	 1	 17	 0	 x	 R	 15.483	 r	 1
10	 U	 1	 18	 1	 left	 L	 1.302	 l	 1
10	 U	 1	 19	 1	 left	 L	 0.951	 l	 1
10	 U	 1	 20	 1	 left	 R	 14.612	 r	 0
10	 U	 1	 21	 1	 right	 L	 11.052	 r	 0
10	 U	 1	 22	 1	 left	 L	 0.961	 l	 1
10	 U	 1	 23	 0	 x	 L	 12.813	 l	 0
10	 U	 1	 24	 1	 left	 L	 1.051	 l	 1
10	 U	 1	 25	 0	 x	 L	 20.323	 r	 1
10	 U	 1	 26	 0	 x	 R	 5.272	 l	 0
10	 U	 1	 27	 0	 x	 L	 16.332	 r	 1
10	 U	 1	 28	 0	 x	 R	 17.732	 r	 1
10	 U	 1	 29	 0	 x	 R	 15.113	 r	 1
10	 U	 1	 30	 1	 left	 L	 1.122	 l	 1
10	 U	 1	 31	 1	 left	 R	 15.202	 r	 0
10	 U	 1	 32	 0	 x	 L	 17.022	 r	 1
10	 U	 1	 33	 1	 left	 L	 0.892	 l	 1
10	 U	 1	 34	 0	 x	 R	 12.982	 l	 0
10	 U	 1	 35	 0	 x	 L	 12.893	 l	 0
10	 U	 1	 36	 0	 x	 L	 18.483	 l	 0
10	 U	 1	 37	 0	 x	 R	 12.632	 r	 1
10	 U	 1	 38	 0	 x	 L	 19.102	 r	 1
10	 U	 1	 39	 1	 left	 L	 1.131	 l	 1
10	 U	 1	 40	 0	 x	 L	 20.223	 r	 1
10	 U	 1	 41	 1	 right	 R	 1.421	 l	 1
10	 U	 1	 42	 1	 left	 R	 15.522	 r	 0
10	 U	 1	 43	 0	 x	 R	 19.723	 r	 1
10	 U	 1	 44	 0	 x	 L	 28.383	 r	 1
10	 U	 1	 45	 0	 x	 R	 2.261	 l	 0
10	 U	 1	 46	 0	 x	 L	 25.933	 r	 1
10	 U	 1	 47	 1	 left	 L	 0.811	 l	 1
10	 U	 1	 48	 0	 x	 R	 20.013	 r	 1
10	 U	 1	 49	 1	 right	 L	 15.682	 r	 0
10	 U	 1	 50	 0	 x	 R	 22.823	 r	 1
10	 U	 1	 51	 1	 left	 L	 1.301	 l	 1
10	 U	 1	 52	 0	 x	 L	 21.533	 r	 1
10	 U	 1	 53	 0	 x	 R	 31.023	 r	 1
10	 U	 1	 54	 0	 x	 L	 24.003	 r	 1
10	 U	 1	 55	 1	 left	 L	 1.171	 l	 1
10	 U	 1	 56	 0	 x	 R	 30.063	 r	 1
10	 U	 1	 57	 1	 right	 R	 1.241	 l	 1
10	 U	 1	 58	 1	 right	 L	 22.663	 l	 1
10	 U	 1	 59	 1	 right	 R	 1.761	 l	 1
10	 U	 1	 60	 1	 left	 R	 31.764	 l	 1
10	 U	 1	 61	 0	 x	 L	 24.483	 r	 1
10	 U	 1	 62	 0	 x	 R	 17.723	 r	 1
10	 U	 1	 63	 0	 x	 R	 24.132	 r	 1
10	 U	 1	 64	 1	 left	 R	 30.924	 r	 0
10	 U	 1	 65	 1	 right	 R	 1.231	 l	 1
10	 U	 1	 66	 0	 x	 L	 31.923	 r	 1
10	 U	 1	 67	 1	 right	 R	 0.881	 l	 1
10	 U	 1	 68	 1	 right	 L	 26.564	 r	 0
10	 U	 1	 69	 0	 x	 R	 9.181	 l	 0
10	 U	 1	 70	 1	 right	 R	 1.181	 l	 1
10	 U	 1	 71	 0	 x	 R	 16.413	 l	 0
10	 U	 1	 72	 0	 x	 L	 11.292	 r	 1
10	 U	 1	 73	 0	 x	 L	 29.664	 r	 1
10	 U	 1	 74	 1	 right	 R	 1.002	 l	 1
10	 U	 1	 75	 1	 right	 L	 11.842	 l	 1
10	 U	 1	 76	 0	 x	 R	 14.892	 r	 1
10	 U	 1	 77	 1	 right	 L	 21.943	 r	 0
10	 U	 1	 78	 0	 x	 R	 24.742	 r	 1
10	 U	 1	 79	 0	 x	 L	 23.583	 r	 1
10	 U	 1	 80	 0	 x	 R	 17.332	 l	 0
10	 U	 1	 81	 1	 right	 R	 0.941	 l	 1
10	 U	 1	 82	 0	 x	 R	 26.133	 r	 1
10	 U	 1	 83	 0	 x	 L	 14.192	 r	 1
10	 U	 1	 84	 0	 x	 R	 34.813	 r	 1
10	 U	 1	 85	 1	 right	 L	 7.142	 l	 1
10	 U	 1	 86	 1	 left	 R	 3.531	 l	 1
10	 U	 1	 87	 1	 right	 L	 10.152	 l	 1
10	 U	 1	 88	 1	 left	 R	 6.672	 l	 1
10	 U	 1	 89	 1	 right	 L	 9.031	 r	 0
10	 U	 1	 90	 0	 x	 R	 17.403	 r	 1
10	 U	 1	 91	 1	 left	 R	 12.072	 l	 1
10	 U	 1	 92	 0	 x	 L	 18.133	 r	 1
10	 U	 1	 93	 1	 right	 L	 22.123	 r	 0
10	 U	 1	 94	 1	 right	 R	 0.761	 l	 1
10	 U	 1	 95	 0	 x	 L	 21.383	 r	 1
10	 U	 1	 96	 0	 x	 L	 21.453	 r	 1
11	 T	 1	 1	 0	 x	 L	 4.051	 r	 1
11	 T	 1	 2	 0	 x	 L	 3.932	 r	 1
11	 T	 1	 3	 0	 x	 L	 3.281	 r	 1
11	 T	 1	 4	 0	 x	 R	 3.932	 r	 1
11	 T	 1	 5	 0	 x	 L	 3.141	 l	 0
11	 T	 1	 6	 1	 left	 R	 2.802	 r	 0
11	 T	 1	 7	 1	 left	 R	 3.392	 r	 0
11	 T	 1	 8	 1	 left	 L	 1.552	 l	 1
11	 T	 1	 9	 1	 left	 R	 3.131	 r	 0
11	 T	 1	 10	 1	 right	 L	 3.192	 r	 0
11	 T	 1	 11	 0	 x	 L	 3.742	 r	 1
11	 T	 1	 12	 0	 x	 R	 2.801	 r	 1
11	 T	 1	 13	 1	 left	 L	 0.881	 l	 1
11	 T	 1	 14	 0	 x	 R	 2.852	 l	 0
11	 T	 1	 15	 0	 x	 L	 2.722	 r	 1
11	 T	 1	 16	 1	 right	 L	 2.581	 r	 0
11	 T	 1	 17	 0	 x	 R	 2.702	 r	 1
11	 T	 1	 18	 1	 right	 R	 1.031	 l	 1
11	 T	 1	 19	 1	 left	 R	 1.971	 l	 1
11	 T	 1	 20	 0	 x	 R	 2.632	 r	 1
11	 T	 1	 21	 1	 right	 R	 0.951	 l	 1
11	 T	 1	 22	 0	 x	 L	 3.371	 l	 0
11	 T	 1	 23	 0	 x	 L	 2.601	 r	 1
11	 T	 1	 24	 1	 left	 R	 4.032	 l	 1
11	 T	 1	 25	 1	 left	 L	 0.811	 l	 1
11	 T	 1	 26	 0	 x	 R	 2.561	 r	 1
11	 T	 1	 27	 0	 x	 R	 2.502	 r	 1
11	 T	 1	 28	 0	 x	 R	 2.542	 r	 1
11	 T	 1	 29	 0	 x	 R	 2.571	 r	 1
11	 T	 1	 30	 1	 left	 L	 0.752	 l	 1
11	 T	 1	 31	 1	 left	 R	 1.932	 r	 0
11	 T	 1	 32	 1	 left	 L	 0.772	 l	 1
11	 T	 1	 33	 1	 left	 R	 2.611	 r	 0
11	 T	 1	 34	 0	 x	 L	 2.651	 r	 1
11	 T	 1	 35	 0	 x	 R	 2.542	 r	 1
11	 T	 1	 36	 1	 right	 L	 2.461	 r	 0
11	 T	 1	 37	 0	 x	 L	 2.621	 r	 1
11	 T	 1	 38	 0	 x	 L	 2.442	 r	 1
11	 T	 1	 39	 1	 right	 R	 1.031	 l	 1
11	 T	 1	 40	 0	 x	 R	 2.561	 r	 1
11	 T	 1	 41	 0	 x	 L	 2.541	 r	 1
11	 T	 1	 42	 1	 right	 R	 1.111	 l	 1
11	 T	 1	 43	 0	 x	 L	 2.632	 r	 1
11	 T	 1	 44	 1	 right	 L	 2.491	 r	 0
11	 T	 1	 45	 0	 x	 L	 2.512	 r	 1
11	 T	 1	 46	 1	 left	 L	 0.701	 l	 1
11	 T	 1	 47	 0	 x	 R	 2.501	 r	 1
11	 T	 1	 48	 1	 left	 L	 0.831	 l	 1
11	 T	 1	 49	 0	 x	 R	 2.581	 r	 1
11	 T	 1	 50	 1	 right	 L	 2.671	 r	 0
11	 T	 1	 51	 1	 left	 L	 0.561	 l	 1
11	 T	 1	 52	 1	 left	 R	 2.661	 r	 0
11	 T	 1	 53	 0	 x	 R	 2.872	 r	 1
11	 T	 1	 54	 1	 right	 L	 2.761	 r	 0
11	 T	 1	 55	 1	 right	 R	 0.851	 l	 1
11	 T	 1	 56	 0	 x	 R	 2.561	 r	 1
11	 T	 1	 57	 1	 right	 L	 2.742	 r	 0
11	 T	 1	 58	 0	 x	 L	 2.821	 r	 1
11	 T	 1	 59	 1	 right	 R	 0.861	 l	 1
11	 T	 1	 60	 1	 left	 R	 2.552	 r	 0
11	 T	 1	 61	 0	 x	 L	 2.741	 r	 1
11	 T	 1	 62	 1	 right	 R	 0.711	 l	 1
11	 T	 1	 63	 1	 right	 L	 1.532	 l	 1
11	 T	 1	 64	 1	 right	 R	 0.662	 l	 1
11	 T	 1	 65	 0	 x	 R	 1.812	 r	 1
11	 T	 1	 66	 0	 x	 L	 2.751	 l	 0
11	 T	 1	 67	 0	 x	 R	 2.642	 r	 1
11	 T	 1	 68	 0	 x	 R	 2.701	 r	 1
11	 T	 1	 69	 0	 x	 L	 2.001	 r	 1
11	 T	 1	 70	 1	 left	 L	 0.821	 l	 1
11	 T	 1	 71	 0	 x	 L	 1.611	 r	 1
11	 T	 1	 72	 0	 x	 R	 2.121	 r	 1
11	 T	 1	 73	 1	 left	 L	 0.641	 l	 1
11	 T	 1	 74	 1	 left	 L	 1.101	 l	 1
11	 T	 1	 75	 1	 left	 L	 0.651	 l	 1
11	 T	 1	 76	 1	 right	 L	 1.392	 r	 0
11	 T	 1	 77	 0	 x	 L	 2.721	 r	 1
11	 T	 1	 78	 0	 x	 L	 2.771	 r	 1
11	 T	 1	 79	 0	 x	 R	 2.142	 r	 1
11	 T	 1	 80	 1	 left	 R	 2.662	 r	 0
11	 T	 1	 81	 0	 x	 R	 2.631	 r	 1
11	 T	 1	 82	 0	 x	 L	 2.591	 r	 1
11	 T	 1	 83	 1	 left	 R	 1.971	 r	 0
11	 T	 1	 84	 1	 right	 R	 0.721	 l	 1
11	 T	 1	 85	 0	 x	 L	 2.591	 r	 1
11	 T	 1	 86	 1	 right	 L	 3.892	 l	 1
11	 T	 1	 87	 0	 x	 R	 2.451	 r	 1
11	 T	 1	 88	 1	 right	 R	 0.671	 l	 1
11	 T	 1	 89	 1	 right	 L	 2.531	 l	 1
11	 T	 1	 90	 1	 right	 R	 0.992	 l	 1
11	 T	 1	 91	 0	 x	 R	 2.611	 r	 1
11	 T	 1	 92	 0	 x	 L	 2.601	 r	 1
11	 T	 1	 93	 0	 x	 R	 2.661	 r	 1
11	 T	 1	 94	 1	 left	 R	 2.892	 r	 0
11	 T	 1	 95	 1	 right	 R	 0.781	 l	 1
11	 T	 1	 96	 1	 right	 L	 2.041	 l	 1
11	 U	 2	 1	 0	 x	 R	 3.361	 r	 1
11	 U	 2	 2	 0	 x	 L	 2.852	 r	 1
11	 U	 2	 3	 1	 left	 R	 3.012	 r	 0
11	 U	 2	 4	 0	 x	 R	 5.101	 r	 1
11	 U	 2	 5	 0	 x	 R	 4.642	 r	 1
11	 U	 2	 6	 1	 left	 L	 0.771	 l	 1
11	 U	 2	 7	 0	 x	 R	 9.652	 r	 1
11	 U	 2	 8	 1	 left	 L	 0.801	 l	 1
11	 U	 2	 9	 1	 right	 L	 4.501	 r	 0
11	 U	 2	 10	 0	 x	 R	 6.752	 r	 1
11	 U	 2	 11	 0	 x	 L	 6.162	 r	 1
11	 U	 2	 12	 0	 x	 R	 5.402	 l	 0
11	 U	 2	 13	 1	 left	 R	 8.932	 r	 0
11	 U	 2	 14	 0	 x	 R	 10.702	 r	 1
11	 U	 2	 15	 1	 left	 R	 8.501	 r	 0
11	 U	 2	 16	 1	 right	 L	 4.652	 r	 0
11	 U	 2	 17	 1	 right	 L	 7.702	 r	 0
11	 U	 2	 18	 0	 x	 L	 12.192	 r	 1
11	 U	 2	 19	 1	 left	 R	 3.992	 r	 0
11	 U	 2	 20	 1	 right	 R	 0.881	 l	 1
11	 U	 2	 21	 1	 right	 R	 0.731	 l	 1
11	 U	 2	 22	 1	 right	 R	 0.752	 l	 1
11	 U	 2	 23	 1	 right	 L	 2.651	 l	 1
11	 U	 2	 24	 1	 right	 R	 0.721	 l	 1
11	 U	 2	 25	 0	 x	 L	 7.432	 r	 1
11	 U	 2	 26	 1	 right	 L	 4.791	 r	 0
11	 U	 2	 27	 1	 right	 R	 0.631	 l	 1
11	 U	 2	 28	 0	 x	 R	 7.322	 r	 1
11	 U	 2	 29	 0	 x	 L	 5.682	 r	 1
11	 U	 2	 30	 1	 left	 L	 0.712	 l	 1
11	 U	 2	 31	 1	 left	 R	 4.771	 r	 0
11	 U	 2	 32	 1	 left	 L	 0.791	 l	 1
11	 U	 2	 33	 1	 right	 R	 0.632	 l	 1
11	 U	 2	 34	 0	 x	 R	 4.052	 r	 1
11	 U	 2	 35	 1	 right	 L	 2.261	 l	 1
11	 U	 2	 36	 0	 x	 L	 3.952	 r	 1
11	 U	 2	 37	 0	 x	 L	 5.672	 r	 1
11	 U	 2	 38	 0	 x	 L	 3.932	 l	 0
11	 U	 2	 39	 0	 x	 R	 4.452	 r	 1
11	 U	 2	 40	 1	 left	 R	 4.151	 r	 0
11	 U	 2	 41	 0	 x	 L	 6.532	 r	 1
11	 U	 2	 42	 0	 x	 L	 3.631	 r	 1
11	 U	 2	 43	 0	 x	 L	 4.852	 r	 1
11	 U	 2	 44	 0	 x	 L	 5.671	 r	 1
11	 U	 2	 45	 1	 right	 R	 0.621	 l	 1
11	 U	 2	 46	 0	 x	 R	 2.642	 r	 1
11	 U	 2	 47	 1	 right	 L	 3.451	 r	 0
11	 U	 2	 48	 0	 x	 L	 3.022	 r	 1
11	 U	 2	 49	 0	 x	 R	 3.501	 r	 1
11	 U	 2	 50	 0	 x	 L	 2.231	 r	 1
11	 U	 2	 51	 0	 x	 L	 3.182	 r	 1
11	 U	 2	 52	 0	 x	 L	 2.581	 r	 1
11	 U	 2	 53	 0	 x	 R	 4.211	 r	 1
11	 U	 2	 54	 1	 right	 R	 0.822	 l	 1
11	 U	 2	 55	 0	 x	 L	 3.121	 r	 1
11	 U	 2	 56	 0	 x	 R	 3.871	 r	 1
11	 U	 2	 57	 1	 left	 R	 1.881	 r	 0
11	 U	 2	 58	 0	 x	 L	 3.392	 r	 1
11	 U	 2	 59	 0	 x	 R	 5.731	 r	 1
11	 U	 2	 60	 0	 x	 R	 3.732	 r	 1
11	 U	 2	 61	 1	 right	 L	 2.521	 r	 0
11	 U	 2	 62	 1	 left	 L	 0.682	 l	 1
11	 U	 2	 63	 0	 x	 L	 2.472	 r	 1
11	 U	 2	 64	 1	 left	 R	 2.431	 r	 0
11	 U	 2	 65	 0	 x	 L	 7.352	 r	 1
11	 U	 2	 66	 0	 x	 R	 6.021	 r	 1
11	 U	 2	 67	 0	 x	 R	 4.792	 r	 1
11	 U	 2	 68	 0	 x	 R	 7.411	 r	 1
11	 U	 2	 69	 1	 left	 L	 6.292	 r	 0
11	 U	 2	 70	 1	 left	 R	 5.342	 r	 0
11	 U	 2	 71	 0	 x	 R	 6.301	 r	 1
11	 U	 2	 72	 1	 right	 L	 8.262	 r	 0
11	 U	 2	 73	 1	 left	 L	 0.821	 l	 1
11	 U	 2	 74	 0	 x	 R	 3.471	 r	 1
11	 U	 2	 75	 1	 right	 R	 0.591	 l	 1
11	 U	 2	 76	 1	 left	 R	 1.202	 r	 0
11	 U	 2	 77	 1	 right	 R	 0.701	 l	 1
11	 U	 2	 78	 0	 x	 R	 2.301	 r	 1
11	 U	 2	 79	 0	 x	 R	 2.342	 r	 1
11	 U	 2	 80	 1	 left	 L	 0.631	 l	 1
11	 U	 2	 81	 1	 right	 L	 2.791	 r	 0
11	 U	 2	 82	 1	 left	 L	 0.661	 l	 1
11	 U	 2	 83	 1	 left	 L	 0.592	 l	 1
11	 U	 2	 84	 0	 x	 L	 2.232	 r	 1
11	 U	 2	 85	 0	 x	 L	 2.131	 r	 1
11	 U	 2	 86	 0	 x	 L	 1.701	 r	 1
11	 U	 2	 87	 1	 left	 L	 0.521	 l	 1
11	 U	 2	 88	 1	 right	 L	 1.062	 r	 0
11	 U	 2	 89	 0	 x	 R	 4.682	 r	 1
11	 U	 2	 90	 1	 right	 R	 0.631	 l	 1
11	 U	 2	 91	 1	 left	 R	 1.162	 r	 0
11	 U	 2	 92	 1	 right	 L	 3.452	 r	 0
11	 U	 2	 93	 0	 x	 L	 5.722	 r	 1
11	 U	 2	 94	 1	 left	 R	 4.022	 r	 0
11	 U	 2	 95	 1	 left	 L	 0.921	 l	 1
11	 U	 2	 96	 1	 right	 R	 0.611	 l	 1
12	 T	 2	 1	 0	 x	 L	 3.472	 r	 1
12	 T	 2	 2	 1	 left	 R	 2.191	 r	 0
12	 T	 2	 3	 1	 left	 R	 2.642	 r	 0
12	 T	 2	 4	 1	 left	 L	 1.192	 l	 1
12	 T	 2	 5	 1	 right	 R	 0.881	 l	 1
12	 T	 2	 6	 1	 right	 L	 2.682	 r	 0
12	 T	 2	 7	 0	 x	 L	 2.362	 r	 1
12	 T	 2	 8	 1	 left	 L	 2.711	 l	 1
12	 T	 2	 9	 0	 x	 R	 2.981	 r	 1
12	 T	 2	 10	 1	 right	 L	 3.772	 l	 1
12	 T	 2	 11	 1	 right	 R	 2.872	 l	 1
12	 T	 2	 12	 1	 right	 L	 3.201	 l	 1
12	 T	 2	 13	 1	 right	 R	 2.732	 l	 1
12	 T	 2	 14	 0	 x	 R	 2.901	 r	 1
12	 T	 2	 15	 0	 x	 R	 3.662	 l	 0
12	 T	 2	 16	 1	 left	 R	 4.002	 r	 0
12	 T	 2	 17	 1	 right	 L	 3.821	 l	 1
12	 T	 2	 18	 0	 x	 R	 3.092	 r	 1
12	 T	 2	 19	 0	 x	 L	 3.202	 r	 1
12	 T	 2	 20	 1	 left	 R	 3.231	 r	 0
12	 T	 2	 21	 0	 x	 L	 3.542	 l	 0
12	 T	 2	 22	 1	 left	 L	 4.042	 l	 1
12	 T	 2	 23	 1	 right	 R	 4.481	 l	 1
12	 T	 2	 24	 1	 right	 L	 2.502	 r	 0
12	 T	 2	 25	 0	 x	 R	 2.682	 r	 1
12	 T	 2	 26	 0	 x	 R	 2.441	 r	 1
12	 T	 2	 27	 0	 x	 R	 2.832	 r	 1
12	 T	 2	 28	 1	 right	 R	 2.712	 l	 1
12	 T	 2	 29	 0	 x	 R	 2.871	 r	 1
12	 T	 2	 30	 0	 x	 L	 2.991	 r	 1
12	 T	 2	 31	 0	 x	 R	 3.072	 r	 1
12	 T	 2	 32	 0	 x	 L	 2.481	 r	 1
12	 T	 2	 33	 0	 x	 R	 2.891	 r	 1
12	 T	 2	 34	 1	 left	 L	 2.672	 l	 1
12	 T	 2	 35	 0	 x	 R	 2.541	 r	 1
12	 T	 2	 36	 0	 x	 L	 3.681	 r	 1
12	 T	 2	 37	 0	 x	 L	 2.632	 r	 1
12	 T	 2	 38	 0	 x	 L	 2.791	 r	 1
12	 T	 2	 39	 1	 left	 R	 2.651	 r	 0
12	 T	 2	 40	 0	 x	 R	 2.352	 r	 1
12	 T	 2	 41	 0	 x	 L	 2.952	 r	 1
12	 T	 2	 42	 0	 x	 R	 2.621	 r	 1
12	 T	 2	 43	 0	 x	 L	 2.742	 r	 1
12	 T	 2	 44	 0	 x	 L	 1.862	 r	 1
12	 T	 2	 45	 1	 left	 R	 1.591	 r	 0
12	 T	 2	 46	 1	 left	 R	 2.431	 r	 0
12	 T	 2	 47	 1	 right	 L	 1.742	 r	 0
12	 T	 2	 48	 0	 x	 R	 1.262	 l	 0
12	 T	 2	 49	 1	 right	 L	 2.941	 l	 1
12	 T	 2	 50	 0	 x	 L	 2.511	 l	 0
12	 T	 2	 51	 1	 right	 L	 2.821	 r	 0
12	 T	 2	 52	 0	 x	 R	 2.561	 r	 1
12	 T	 2	 53	 0	 x	 L	 2.921	 r	 1
12	 T	 2	 54	 1	 right	 R	 1.342	 l	 1
12	 T	 2	 55	 1	 left	 L	 1.701	 l	 1
12	 T	 2	 56	 1	 right	 R	 1.071	 l	 1
12	 T	 2	 57	 0	 x	 L	 2.301	 r	 1
12	 T	 2	 58	 0	 x	 R	 2.482	 r	 1
12	 T	 2	 59	 1	 left	 L	 1.131	 l	 1
12	 T	 2	 60	 0	 x	 R	 1.471	 r	 1
12	 T	 2	 61	 1	 right	 R	 0.881	 l	 1
12	 T	 2	 62	 0	 x	 R	 1.261	 r	 1
12	 T	 2	 63	 1	 right	 L	 1.102	 r	 0
12	 T	 2	 64	 0	 x	 R	 1.042	 r	 1
12	 T	 2	 65	 1	 left	 L	 0.721	 l	 1
12	 T	 2	 66	 1	 right	 R	 0.781	 l	 1
12	 T	 2	 67	 1	 left	 R	 1.571	 r	 0
12	 T	 2	 68	 0	 x	 L	 1.401	 l	 0
12	 T	 2	 69	 1	 left	 R	 2.702	 r	 0
12	 T	 2	 70	 0	 x	 L	 1.991	 r	 1
12	 T	 2	 71	 0	 x	 L	 2.131	 l	 0
12	 T	 2	 72	 1	 right	 R	 1.502	 l	 1
12	 T	 2	 73	 1	 left	 R	 2.522	 r	 0
12	 T	 2	 74	 1	 left	 L	 0.991	 l	 1
12	 T	 2	 75	 0	 x	 L	 2.292	 r	 1
12	 T	 2	 76	 0	 x	 R	 1.412	 r	 1
12	 T	 2	 77	 1	 left	 L	 0.901	 l	 1
12	 T	 2	 78	 1	 right	 L	 1.121	 r	 0
12	 T	 2	 79	 1	 right	 L	 1.381	 r	 0
12	 T	 2	 80	 0	 x	 L	 1.121	 r	 1
12	 T	 2	 81	 0	 x	 R	 1.072	 r	 1
12	 T	 2	 82	 1	 right	 R	 0.932	 l	 1
12	 T	 2	 83	 0	 x	 L	 1.391	 r	 1
12	 T	 2	 84	 1	 left	 R	 2.361	 r	 0
12	 T	 2	 85	 1	 left	 R	 1.021	 r	 0
12	 T	 2	 86	 1	 left	 L	 0.822	 l	 1
12	 T	 2	 87	 0	 x	 L	 1.002	 r	 1
12	 T	 2	 88	 0	 x	 L	 1.402	 r	 1
12	 T	 2	 89	 1	 right	 L	 1.191	 r	 0
12	 T	 2	 90	 0	 x	 R	 1.191	 l	 0
12	 T	 2	 91	 0	 x	 L	 0.952	 r	 1
12	 T	 2	 92	 0	 x	 R	 0.832	 r	 1
12	 T	 2	 93	 1	 left	 L	 0.982	 l	 1
12	 T	 2	 94	 1	 right	 R	 0.711	 l	 1
12	 T	 2	 95	 1	 left	 L	 0.781	 l	 1
12	 T	 2	 96	 0	 x	 R	 1.001	 r	 1
12	 U	 1	 1	 1	 left	 R	 13.582	 r	 0
12	 U	 1	 2	 0	 x	 R	 18.443	 r	 1
12	 U	 1	 3	 0	 x	 L	 19.132	 r	 1
12	 U	 1	 4	 0	 x	 R	 16.962	 r	 1
12	 U	 1	 5	 0	 x	 L	 17.163	 r	 1
12	 U	 1	 6	 1	 right	 R	 2.151	 l	 1
12	 U	 1	 7	 0	 x	 L	 20.613	 r	 1
12	 U	 1	 8	 1	 right	 L	 25.653	 r	 0
12	 U	 1	 9	 1	 right	 R	 1.572	 l	 1
12	 U	 1	 10	 0	 x	 R	 24.083	 r	 1
12	 U	 1	 11	 0	 x	 R	 17.473	 r	 1
12	 U	 1	 12	 1	 right	 L	 20.442	 r	 0
12	 U	 1	 13	 1	 left	 R	 28.153	 r	 0
12	 U	 1	 14	 1	 left	 L	 1.322	 l	 1
12	 U	 1	 15	 0	 x	 R	 28.913	 r	 1
12	 U	 1	 16	 1	 right	 R	 1.851	 l	 1
12	 U	 1	 17	 0	 x	 L	 33.623	 r	 1
12	 U	 1	 18	 1	 right	 L	 32.604	 l	 1
12	 U	 1	 19	 0	 x	 R	 40.504	 r	 1
12	 U	 1	 20	 0	 x	 R	 39.964	 r	 1
12	 U	 1	 21	 0	 x	 L	 32.454	 r	 1
12	 U	 1	 22	 1	 right	 L	 8.041	 x	 1
12	 U	 1	 23	 1	 left	 R	 20.723	 l	 1
12	 U	 1	 24	 0	 x	 L	 36.634	 r	 1
12	 U	 1	 25	 1	 left	 R	 38.763	 l	 1
12	 U	 1	 26	 1	 right	 R	 1.472	 l	 1
12	 U	 1	 27	 0	 x	 L	 52.824	 r	 1
12	 U	 1	 28	 0	 x	 L	 37.044	 r	 1
12	 U	 1	 29	 0	 x	 R	 44.144	 r	 1
12	 U	 1	 30	 0	 x	 R	 34.454	 r	 1
12	 U	 1	 31	 0	 x	 L	 28.373	 r	 1
12	 U	 1	 32	 1	 right	 R	 1.361	 l	 1
12	 U	 1	 33	 0	 x	 R	 30.763	 r	 1
12	 U	 1	 34	 1	 left	 L	 1.481	 l	 1
12	 U	 1	 35	 0	 x	 R	 43.944	 r	 1
12	 U	 1	 36	 0	 x	 R	 39.674	 r	 1
12	 U	 1	 37	 0	 x	 L	 36.603	 r	 1
12	 U	 1	 38	 1	 left	 R	 31.624	 r	 0
12	 U	 1	 39	 1	 right	 L	 23.893	 l	 1
12	 U	 1	 40	 1	 left	 L	 1.171	 l	 1
12	 U	 1	 41	 0	 x	 R	 39.013	 r	 1
12	 U	 1	 42	 1	 left	 R	 13.402	 l	 1
12	 U	 1	 43	 1	 left	 R	 16.202	 l	 1
12	 U	 1	 44	 1	 left	 R	 39.854	 r	 0
12	 U	 1	 45	 0	 x	 L	 29.693	 x	 1
12	 U	 1	 46	 0	 x	 L	 37.994	 r	 1
12	 U	 1	 47	 0	 x	 L	 42.504	 r	 1
12	 U	 1	 48	 0	 x	 R	 37.974	 r	 1
12	 U	 1	 49	 1	 right	 L	 20.883	 l	 1
12	 U	 1	 50	 1	 right	 L	 12.673	 l	 1
12	 U	 1	 51	 0	 x	 L	 38.984	 r	 1
12	 U	 1	 52	 0	 x	 L	 49.875	 r	 1
12	 U	 1	 53	 0	 x	 L	 41.194	 r	 1
12	 U	 1	 54	 0	 x	 L	 38.873	 r	 1
12	 U	 1	 55	 1	 left	 R	 25.393	 l	 1
12	 U	 1	 56	 1	 left	 R	 20.293	 l	 1
12	 U	 1	 57	 1	 left	 R	 30.523	 l	 1
12	 U	 1	 58	 1	 left	 L	 0.971	 l	 1
12	 U	 1	 59	 1	 right	 L	 15.183	 l	 1
12	 U	 1	 60	 1	 left	 L	 0.832	 l	 1
12	 U	 1	 61	 1	 left	 L	 0.862	 l	 1
12	 U	 1	 62	 0	 x	 L	 29.163	 r	 1
12	 U	 1	 63	 1	 right	 R	 1.221	 l	 1
12	 U	 1	 64	 1	 right	 R	 1.331	 l	 1
12	 U	 1	 65	 1	 right	 R	 1.342	 l	 1
12	 U	 1	 66	 1	 right	 R	 0.832	 l	 1
12	 U	 1	 67	 1	 left	 L	 0.851	 l	 1
12	 U	 1	 68	 1	 right	 L	 18.142	 l	 1
12	 U	 1	 69	 0	 x	 L	 35.004	 r	 1
12	 U	 1	 70	 0	 x	 L	 31.863	 r	 1
12	 U	 1	 71	 1	 right	 L	 19.933	 l	 1
12	 U	 1	 72	 1	 right	 R	 0.772	 l	 1
12	 U	 1	 73	 0	 x	 R	 23.772	 r	 1
12	 U	 1	 74	 0	 x	 L	 32.954	 r	 1
12	 U	 1	 75	 0	 x	 R	 32.513	 r	 1
12	 U	 1	 76	 0	 x	 R	 35.234	 r	 1
12	 U	 1	 77	 1	 left	 L	 1.471	 l	 1
12	 U	 1	 78	 1	 left	 R	 11.732	 l	 1
12	 U	 1	 79	 1	 right	 L	 2.341	 l	 1
12	 U	 1	 80	 0	 x	 R	 21.313	 r	 1
12	 U	 1	 81	 0	 x	 R	 30.103	 r	 1
12	 U	 1	 82	 0	 x	 R	 25.663	 r	 1
12	 U	 1	 83	 1	 left	 L	 1.141	 l	 1
12	 U	 1	 84	 1	 right	 R	 0.921	 l	 1
12	 U	 1	 85	 0	 x	 L	 22.423	 r	 1
12	 U	 1	 86	 0	 x	 R	 22.352	 r	 1
12	 U	 1	 87	 1	 right	 L	 11.292	 l	 1
12	 U	 1	 88	 0	 x	 R	 27.283	 r	 1
12	 U	 1	 89	 0	 x	 R	 24.463	 r	 1
12	 U	 1	 90	 1	 left	 L	 1.331	 l	 1
12	 U	 1	 91	 1	 left	 L	 1.001	 l	 1
12	 U	 1	 92	 1	 right	 R	 0.982	 l	 1
12	 U	 1	 93	 1	 left	 L	 0.672	 l	 1
12	 U	 1	 94	 0	 x	 L	 26.993	 r	 1
12	 U	 1	 95	 0	 x	 L	 26.933	 r	 1
12	 U	 1	 96	 0	 x	 R	 27.613	 r	 1
13	 T	 1	 1	 0	 x	 L	 4.061	 l	 0
13	 T	 1	 2	 0	 x	 L	 3.051	 l	 0
13	 T	 1	 3	 1	 right	 L	 2.672	 l	 1
13	 T	 1	 4	 0	 x	 L	 2.651	 r	 1
13	 T	 1	 5	 0	 x	 L	 2.561	 l	 0
13	 T	 1	 6	 1	 left	 R	 2.821	 l	 1
13	 T	 1	 7	 1	 left	 L	 1.241	 r	 0
13	 T	 1	 8	 1	 right	 L	 2.611	 l	 1
13	 T	 1	 9	 0	 x	 L	 4.482	 r	 1
13	 T	 1	 10	 0	 x	 R	 2.791	 l	 0
13	 T	 1	 11	 1	 right	 L	 2.761	 l	 1
13	 T	 1	 12	 0	 x	 L	 2.761	 r	 1
13	 T	 1	 13	 1	 right	 L	 3.572	 l	 1
13	 T	 1	 14	 0	 x	 L	 2.731	 r	 1
13	 T	 1	 15	 1	 left	 L	 0.972	 l	 1
13	 T	 1	 16	 1	 right	 R	 1.161	 l	 1
13	 T	 1	 17	 0	 x	 L	 2.741	 r	 1
13	 T	 1	 18	 1	 left	 L	 0.951	 l	 1
13	 T	 1	 19	 1	 right	 R	 0.711	 l	 1
13	 T	 1	 20	 1	 right	 L	 2.991	 r	 0
13	 T	 1	 21	 1	 left	 L	 0.631	 l	 1
13	 T	 1	 22	 0	 x	 L	 3.542	 l	 0
13	 T	 1	 23	 1	 left	 R	 3.652	 r	 0
13	 T	 1	 24	 0	 x	 R	 3.471	 r	 1
13	 T	 1	 25	 0	 x	 L	 2.702	 l	 0
13	 T	 1	 26	 0	 x	 L	 2.621	 l	 0
13	 T	 1	 27	 1	 right	 R	 0.791	 l	 1
13	 T	 1	 28	 1	 left	 L	 0.792	 l	 1
13	 T	 1	 29	 0	 x	 R	 4.181	 r	 1
13	 T	 1	 30	 1	 left	 R	 3.281	 r	 0
13	 T	 1	 31	 0	 x	 R	 2.691	 l	 0
13	 T	 1	 32	 0	 x	 L	 3.142	 r	 1
13	 T	 1	 33	 1	 left	 L	 0.731	 l	 1
13	 T	 1	 34	 1	 left	 R	 2.851	 r	 0
13	 T	 1	 35	 1	 left	 R	 2.772	 r	 0
13	 T	 1	 36	 1	 left	 R	 2.431	 l	 1
13	 T	 1	 37	 1	 left	 L	 0.731	 r	 0
13	 T	 1	 38	 1	 left	 R	 3.732	 r	 0
13	 T	 1	 39	 1	 right	 R	 0.641	 l	 1
13	 T	 1	 40	 0	 x	 R	 3.302	 r	 1
13	 T	 1	 41	 1	 left	 R	 2.802	 l	 1
13	 T	 1	 42	 0	 x	 L	 2.661	 r	 1
13	 T	 1	 43	 1	 left	 R	 2.611	 l	 1
13	 T	 1	 44	 0	 x	 R	 2.691	 r	 1
13	 T	 1	 45	 0	 x	 R	 2.441	 r	 1
13	 T	 1	 46	 1	 right	 L	 2.621	 l	 1
13	 T	 1	 47	 0	 x	 L	 2.962	 r	 1
13	 T	 1	 48	 1	 left	 L	 0.911	 l	 1
13	 T	 1	 49	 0	 x	 R	 3.051	 r	 1
13	 T	 1	 50	 1	 left	 R	 1.881	 r	 0
13	 T	 1	 51	 0	 x	 R	 2.212	 l	 0
13	 T	 1	 52	 1	 right	 R	 0.731	 l	 1
13	 T	 1	 53	 1	 left	 R	 2.731	 r	 0
13	 T	 1	 54	 1	 right	 L	 2.752	 l	 1
13	 T	 1	 55	 0	 x	 R	 2.752	 l	 0
13	 T	 1	 56	 1	 right	 L	 3.321	 r	 0
13	 T	 1	 57	 1	 left	 L	 0.641	 l	 1
13	 T	 1	 58	 1	 right	 R	 0.691	 l	 1
13	 T	 1	 59	 1	 right	 R	 0.601	 l	 1
13	 T	 1	 60	 1	 right	 R	 0.621	 l	 1
13	 T	 1	 61	 0	 x	 L	 1.572	 l	 0
13	 T	 1	 62	 0	 x	 L	 2.601	 r	 1
13	 T	 1	 63	 1	 right	 L	 2.501	 l	 1
13	 T	 1	 64	 0	 x	 R	 2.071	 r	 1
13	 T	 1	 65	 1	 right	 L	 2.691	 r	 0
13	 T	 1	 66	 0	 x	 R	 3.051	 l	 0
13	 T	 1	 67	 0	 x	 R	 1.502	 l	 0
13	 T	 1	 68	 1	 right	 R	 0.672	 l	 1
13	 T	 1	 69	 1	 right	 R	 0.621	 l	 1
13	 T	 1	 70	 1	 left	 R	 2.591	 r	 0
13	 T	 1	 71	 0	 x	 L	 3.402	 r	 1
13	 T	 1	 72	 0	 x	 L	 2.841	 l	 0
13	 T	 1	 73	 1	 left	 L	 0.691	 l	 1
13	 T	 1	 74	 0	 x	 R	 3.022	 r	 1
13	 T	 1	 75	 0	 x	 R	 2.742	 r	 1
13	 T	 1	 76	 0	 x	 L	 2.421	 l	 0
13	 T	 1	 77	 1	 left	 L	 0.862	 l	 1
13	 T	 1	 78	 0	 x	 R	 3.082	 r	 1
13	 T	 1	 79	 1	 right	 L	 2.331	 l	 1
13	 T	 1	 80	 0	 x	 R	 3.532	 l	 0
13	 T	 1	 81	 0	 x	 R	 3.252	 r	 1
13	 T	 1	 82	 0	 x	 R	 2.611	 l	 0
13	 T	 1	 83	 0	 x	 L	 3.401	 l	 0
13	 T	 1	 84	 0	 x	 L	 2.861	 l	 0
13	 T	 1	 85	 0	 x	 R	 3.391	 r	 1
13	 T	 1	 86	 1	 right	 R	 0.911	 l	 1
13	 T	 1	 87	 0	 x	 L	 3.242	 l	 0
13	 T	 1	 88	 1	 right	 L	 2.391	 l	 1
13	 T	 1	 89	 0	 x	 R	 3.852	 l	 0
13	 T	 1	 90	 0	 x	 L	 2.391	 r	 1
13	 T	 1	 91	 0	 x	 R	 3.962	 l	 0
13	 T	 1	 92	 0	 x	 R	 4.521	 r	 1
13	 T	 1	 93	 0	 x	 L	 3.821	 r	 1
13	 T	 1	 94	 1	 left	 L	 0.681	 l	 1
13	 T	 1	 95	 1	 right	 R	 0.531	 l	 1
13	 T	 1	 96	 0	 x	 R	 2.471	 l	 0
13	 U	 2	 1	 0	 x	 R	 19.612	 r	 1
13	 U	 2	 2	 1	 left	 R	 15.463	 r	 0
13	 U	 2	 3	 1	 right	 L	 8.811	 l	 1
13	 U	 2	 4	 1	 right	 L	 20.123	 r	 0
13	 U	 2	 5	 0	 x	 R	 15.332	 r	 1
13	 U	 2	 6	 0	 x	 R	 20.283	 r	 1
13	 U	 2	 7	 0	 x	 L	 20.162	 r	 1
13	 U	 2	 8	 1	 left	 R	 15.953	 r	 0
13	 U	 2	 9	 1	 left	 L	 1.121	 l	 1
13	 U	 2	 10	 0	 x	 R	 18.962	 r	 1
13	 U	 2	 11	 0	 x	 L	 14.572	 r	 1
13	 U	 2	 12	 0	 x	 R	 15.493	 r	 1
13	 U	 2	 13	 1	 left	 L	 0.982	 l	 1
13	 U	 2	 14	 0	 x	 R	 12.162	 r	 1
13	 U	 2	 15	 0	 x	 L	 16.572	 r	 1
13	 U	 2	 16	 1	 left	 R	 17.923	 r	 0
13	 U	 2	 17	 1	 left	 L	 0.971	 l	 1
13	 U	 2	 18	 0	 x	 R	 17.573	 l	 0
13	 U	 2	 19	 0	 x	 R	 24.213	 r	 1
13	 U	 2	 20	 1	 left	 R	 21.062	 l	 1
13	 U	 2	 21	 1	 right	 L	 19.913	 l	 1
13	 U	 2	 22	 0	 x	 L	 20.062	 r	 1
13	 U	 2	 23	 0	 x	 R	 24.413	 r	 1
13	 U	 2	 24	 1	 right	 L	 5.142	 l	 1
13	 U	 2	 25	 0	 x	 R	 30.973	 r	 1
13	 U	 2	 26	 0	 x	 R	 25.553	 r	 1
13	 U	 2	 27	 0	 x	 L	 22.963	 r	 1
13	 U	 2	 28	 0	 x	 R	 21.192	 r	 1
13	 U	 2	 29	 1	 right	 L	 15.892	 r	 0
13	 U	 2	 30	 1	 right	 R	 1.062	 l	 1
13	 U	 2	 31	 0	 x	 L	 24.493	 r	 1
13	 U	 2	 32	 0	 x	 R	 3.761	 r	 1
13	 U	 2	 33	 1	 left	 R	 33.113	 r	 0
13	 U	 2	 34	 0	 x	 L	 38.054	 r	 1
13	 U	 2	 35	 0	 x	 R	 36.534	 r	 1
13	 U	 2	 36	 1	 right	 L	 27.263	 l	 1
13	 U	 2	 37	 1	 right	 L	 17.112	 l	 1
13	 U	 2	 38	 1	 right	 L	 27.183	 r	 0
13	 U	 2	 39	 0	 x	 L	 20.773	 r	 1
13	 U	 2	 40	 1	 right	 L	 23.423	 r	 0
13	 U	 2	 41	 0	 x	 L	 23.853	 r	 1
13	 U	 2	 42	 0	 x	 L	 27.413	 r	 1
13	 U	 2	 43	 0	 x	 R	 29.423	 r	 1
13	 U	 2	 44	 0	 x	 L	 33.094	 r	 1
13	 U	 2	 45	 0	 x	 R	 8.912	 x	 1
13	 U	 2	 46	 0	 x	 R	 30.213	 r	 1
13	 U	 2	 47	 1	 right	 R	 0.921	 l	 1
13	 U	 2	 48	 0	 x	 L	 34.124	 r	 1
13	 U	 2	 49	 0	 x	 R	 28.714	 r	 1
13	 U	 2	 50	 0	 x	 R	 26.483	 r	 1
13	 U	 2	 51	 1	 right	 R	 0.921	 l	 1
13	 U	 2	 52	 0	 x	 R	 25.923	 r	 1
13	 U	 2	 53	 1	 left	 R	 17.793	 l	 1
13	 U	 2	 54	 1	 right	 R	 0.782	 l	 1
13	 U	 2	 55	 0	 x	 L	 29.303	 r	 1
13	 U	 2	 56	 1	 right	 R	 0.801	 l	 1
13	 U	 2	 57	 1	 right	 R	 0.651	 l	 1
13	 U	 2	 58	 0	 x	 L	 28.024	 r	 1
13	 U	 2	 59	 1	 left	 R	 8.322	 l	 1
13	 U	 2	 60	 1	 right	 R	 0.631	 l	 1
13	 U	 2	 61	 1	 left	 R	 22.723	 r	 0
13	 U	 2	 62	 0	 x	 L	 18.862	 r	 1
13	 U	 2	 63	 1	 left	 L	 1.002	 l	 1
13	 U	 2	 64	 0	 x	 L	 19.592	 r	 1
13	 U	 2	 65	 1	 left	 L	 0.831	 l	 1
13	 U	 2	 66	 1	 left	 L	 0.782	 l	 1
13	 U	 2	 67	 1	 right	 R	 0.761	 l	 1
13	 U	 2	 68	 1	 left	 L	 0.751	 l	 1
13	 U	 2	 69	 0	 x	 L	 25.793	 r	 1
13	 U	 2	 70	 0	 x	 L	 21.793	 r	 1
13	 U	 2	 71	 1	 right	 L	 14.332	 l	 1
13	 U	 2	 72	 0	 x	 R	 22.173	 r	 1
13	 U	 2	 73	 0	 x	 L	 29.333	 r	 1
13	 U	 2	 74	 0	 x	 L	 27.613	 r	 1
13	 U	 2	 75	 1	 left	 L	 0.981	 l	 1
13	 U	 2	 76	 1	 left	 L	 0.651	 l	 1
13	 U	 2	 77	 1	 right	 R	 0.741	 l	 1
13	 U	 2	 78	 1	 right	 R	 0.672	 l	 1
13	 U	 2	 79	 1	 left	 R	 7.692	 l	 1
13	 U	 2	 80	 1	 left	 R	 20.993	 r	 0
13	 U	 2	 81	 0	 x	 L	 30.693	 r	 1
13	 U	 2	 82	 1	 left	 L	 0.861	 l	 1
13	 U	 2	 83	 1	 left	 R	 21.703	 r	 0
13	 U	 2	 84	 1	 right	 L	 14.382	 l	 1
13	 U	 2	 85	 0	 x	 L	 23.933	 r	 1
13	 U	 2	 86	 1	 left	 L	 0.931	 l	 1
13	 U	 2	 87	 0	 x	 R	 24.803	 r	 1
13	 U	 2	 88	 0	 x	 R	 25.933	 r	 1
13	 U	 2	 89	 1	 right	 R	 0.841	 l	 1
13	 U	 2	 90	 1	 right	 R	 0.681	 l	 1
13	 U	 2	 91	 0	 x	 L	 21.213	 r	 1
13	 U	 2	 92	 0	 x	 R	 21.793	 r	 1
13	 U	 2	 93	 1	 right	 L	 8.801	 l	 1
13	 U	 2	 94	 1	 left	 L	 0.882	 l	 1
13	 U	 2	 95	 0	 x	 L	 25.233	 r	 1
13	 U	 2	 96	 1	 left	 R	 20.163	 l	 1
14	 T	 2	 1	 0	 x	 L	 3.461	 r	 1
14	 T	 2	 2	 1	 left	 L	 0.791	 l	 1
14	 T	 2	 3	 1	 left	 R	 2.872	 r	 0
14	 T	 2	 4	 0	 x	 R	 2.711	 l	 0
14	 T	 2	 5	 0	 x	 L	 3.061	 r	 1
14	 T	 2	 6	 1	 left	 L	 0.852	 l	 1
14	 T	 2	 7	 1	 right	 R	 0.791	 l	 1
14	 T	 2	 8	 0	 x	 R	 2.691	 r	 1
14	 T	 2	 9	 1	 right	 L	 2.721	 r	 0
14	 T	 2	 10	 0	 x	 L	 2.641	 l	 0
14	 T	 2	 11	 0	 x	 L	 2.812	 r	 1
14	 T	 2	 12	 0	 x	 R	 2.941	 r	 1
14	 T	 2	 13	 0	 x	 L	 2.841	 l	 0
14	 T	 2	 14	 1	 left	 L	 0.952	 l	 1
14	 T	 2	 15	 1	 right	 L	 2.591	 l	 1
14	 T	 2	 16	 0	 x	 R	 2.741	 r	 1
14	 T	 2	 17	 1	 right	 R	 0.982	 l	 1
14	 T	 2	 18	 1	 right	 R	 0.592	 l	 1
14	 T	 2	 19	 1	 right	 R	 0.661	 l	 1
14	 T	 2	 20	 0	 x	 L	 2.871	 r	 1
14	 T	 2	 21	 1	 right	 R	 0.631	 l	 1
14	 T	 2	 22	 1	 right	 L	 2.682	 r	 0
14	 T	 2	 23	 0	 x	 R	 2.731	 r	 1
14	 T	 2	 24	 0	 x	 R	 2.941	 l	 0
14	 T	 2	 25	 1	 left	 L	 0.681	 r	 0
14	 T	 2	 26	 0	 x	 R	 2.301	 r	 1
14	 T	 2	 27	 1	 right	 R	 0.681	 l	 1
14	 T	 2	 28	 0	 x	 R	 2.831	 r	 1
14	 T	 2	 29	 1	 right	 R	 0.711	 l	 1
14	 T	 2	 30	 1	 left	 L	 0.661	 l	 1
14	 T	 2	 31	 0	 x	 R	 2.682	 r	 1
14	 T	 2	 32	 0	 x	 L	 2.571	 r	 1
14	 T	 2	 33	 1	 right	 L	 2.801	 r	 0
14	 T	 2	 34	 1	 left	 L	 0.862	 l	 1
14	 T	 2	 35	 0	 x	 R	 2.472	 r	 1
14	 T	 2	 36	 1	 right	 R	 0.801	 l	 1
14	 T	 2	 37	 0	 x	 L	 2.541	 r	 1
14	 T	 2	 38	 0	 x	 L	 2.501	 r	 1
14	 T	 2	 39	 0	 x	 R	 2.492	 l	 0
14	 T	 2	 40	 0	 x	 L	 2.561	 r	 1
14	 T	 2	 41	 1	 left	 R	 2.561	 r	 0
14	 T	 2	 42	 0	 x	 R	 2.692	 r	 1
14	 T	 2	 43	 0	 x	 L	 2.511	 l	 0
14	 T	 2	 44	 1	 right	 L	 2.511	 r	 0
14	 T	 2	 45	 1	 left	 R	 2.642	 r	 0
14	 T	 2	 46	 0	 x	 R	 3.002	 l	 0
14	 T	 2	 47	 1	 right	 L	 2.621	 r	 0
14	 T	 2	 48	 0	 x	 L	 2.581	 r	 1
14	 T	 2	 49	 1	 left	 R	 2.492	 r	 0
14	 T	 2	 50	 1	 right	 R	 0.971	 l	 1
14	 T	 2	 51	 1	 left	 L	 0.761	 l	 1
14	 T	 2	 52	 0	 x	 L	 2.701	 l	 0
14	 T	 2	 53	 0	 x	 R	 2.632	 r	 1
14	 T	 2	 54	 1	 left	 R	 2.691	 r	 0
14	 T	 2	 55	 1	 left	 L	 0.741	 l	 1
14	 T	 2	 56	 1	 right	 L	 2.572	 r	 0
14	 T	 2	 57	 0	 x	 L	 2.842	 r	 1
14	 T	 2	 58	 0	 x	 R	 2.731	 r	 1
14	 T	 2	 59	 0	 x	 L	 2.511	 r	 1
14	 T	 2	 60	 1	 left	 L	 0.762	 l	 1
14	 T	 2	 61	 0	 x	 L	 2.782	 r	 1
14	 T	 2	 62	 1	 left	 R	 2.701	 r	 0
14	 T	 2	 63	 1	 left	 L	 0.861	 l	 1
14	 T	 2	 64	 1	 right	 L	 2.702	 l	 1
14	 T	 2	 65	 1	 left	 R	 2.562	 r	 0
14	 T	 2	 66	 0	 x	 R	 2.751	 r	 1
14	 T	 2	 67	 1	 left	 R	 2.572	 r	 0
14	 T	 2	 68	 0	 x	 L	 2.622	 r	 1
14	 T	 2	 69	 0	 x	 L	 2.621	 r	 1
14	 T	 2	 70	 0	 x	 L	 2.681	 r	 1
14	 T	 2	 71	 0	 x	 R	 2.542	 r	 1
14	 T	 2	 72	 0	 x	 R	 2.652	 r	 1
14	 T	 2	 73	 1	 left	 R	 2.681	 r	 0
14	 T	 2	 74	 1	 right	 L	 2.391	 r	 0
14	 T	 2	 75	 0	 x	 L	 3.162	 r	 1
14	 T	 2	 76	 0	 x	 L	 2.311	 r	 1
14	 T	 2	 77	 0	 x	 L	 2.401	 l	 0
14	 T	 2	 78	 1	 left	 L	 0.801	 l	 1
14	 T	 2	 79	 0	 x	 L	 2.472	 r	 1
14	 T	 2	 80	 1	 left	 R	 2.561	 r	 0
14	 T	 2	 81	 0	 x	 R	 2.821	 l	 0
14	 T	 2	 82	 0	 x	 R	 2.591	 r	 1
14	 T	 2	 83	 1	 right	 L	 2.742	 r	 0
14	 T	 2	 84	 1	 left	 L	 0.711	 l	 1
14	 T	 2	 85	 1	 right	 L	 2.501	 r	 0
14	 T	 2	 86	 0	 x	 R	 2.602	 r	 1
14	 T	 2	 87	 1	 left	 R	 2.682	 r	 0
14	 T	 2	 88	 0	 x	 L	 2.881	 l	 0
14	 T	 2	 89	 1	 right	 R	 1.031	 l	 1
14	 T	 2	 90	 0	 x	 R	 2.602	 r	 1
14	 T	 2	 91	 1	 left	 R	 2.372	 r	 0
14	 T	 2	 92	 0	 x	 R	 2.611	 r	 1
14	 T	 2	 93	 1	 right	 R	 1.101	 r	 0
14	 T	 2	 94	 0	 x	 R	 2.722	 l	 0
14	 T	 2	 95	 1	 right	 R	 0.971	 l	 1
14	 T	 2	 96	 1	 right	 L	 2.581	 r	 0
14	 U	 1	 1	 0	 x	 R	 6.082	 r	 1
14	 U	 1	 2	 1	 left	 R	 10.342	 r	 0
14	 U	 1	 3	 1	 right	 R	 0.902	 l	 1
14	 U	 1	 4	 1	 left	 L	 2.322	 l	 1
14	 U	 1	 5	 1	 right	 R	 0.751	 l	 1
14	 U	 1	 6	 0	 x	 L	 11.762	 r	 1
14	 U	 1	 7	 0	 x	 R	 11.082	 r	 1
14	 U	 1	 8	 0	 x	 L	 9.412	 r	 1
14	 U	 1	 9	 1	 right	 L	 11.763	 r	 0
14	 U	 1	 10	 0	 x	 R	 10.591	 r	 1
14	 U	 1	 11	 1	 right	 R	 0.902	 l	 1
14	 U	 1	 12	 0	 x	 R	 12.342	 r	 1
14	 U	 1	 13	 1	 left	 R	 13.971	 r	 0
14	 U	 1	 14	 0	 x	 L	 16.872	 r	 1
14	 U	 1	 15	 0	 x	 L	 14.732	 r	 1
14	 U	 1	 16	 0	 x	 L	 12.542	 r	 1
14	 U	 1	 17	 1	 left	 L	 1.031	 l	 1
14	 U	 1	 18	 1	 right	 L	 12.972	 r	 0
14	 U	 1	 19	 0	 x	 L	 11.372	 r	 1
14	 U	 1	 20	 0	 x	 L	 12.312	 r	 1
14	 U	 1	 21	 1	 left	 R	 16.542	 r	 0
14	 U	 1	 22	 1	 left	 R	 5.752	 l	 1
14	 U	 1	 23	 0	 x	 R	 13.212	 r	 1
14	 U	 1	 24	 0	 x	 R	 9.442	 r	 1
14	 U	 1	 25	 1	 left	 R	 20.553	 r	 0
14	 U	 1	 26	 1	 left	 R	 11.522	 r	 0
14	 U	 1	 27	 0	 x	 L	 10.532	 r	 1
14	 U	 1	 28	 0	 x	 R	 12.602	 r	 1
14	 U	 1	 29	 0	 x	 R	 10.232	 r	 1
14	 U	 1	 30	 1	 left	 L	 0.861	 l	 1
14	 U	 1	 31	 0	 x	 R	 12.483	 r	 1
14	 U	 1	 32	 1	 left	 L	 0.891	 l	 1
14	 U	 1	 33	 0	 x	 R	 13.902	 r	 1
14	 U	 1	 34	 0	 x	 R	 7.502	 r	 1
14	 U	 1	 35	 1	 right	 R	 0.862	 l	 1
14	 U	 1	 36	 1	 right	 R	 0.891	 l	 1
14	 U	 1	 37	 1	 right	 L	 13.902	 r	 0
14	 U	 1	 38	 1	 right	 L	 10.152	 r	 0
14	 U	 1	 39	 1	 left	 L	 0.781	 l	 1
14	 U	 1	 40	 0	 x	 L	 14.782	 r	 1
14	 U	 1	 41	 1	 left	 L	 0.851	 l	 1
14	 U	 1	 42	 1	 left	 R	 16.653	 r	 0
14	 U	 1	 43	 1	 left	 R	 6.082	 r	 0
14	 U	 1	 44	 1	 left	 L	 0.851	 l	 1
14	 U	 1	 45	 1	 left	 L	 0.891	 l	 1
14	 U	 1	 46	 0	 x	 R	 12.282	 r	 1
14	 U	 1	 47	 0	 x	 R	 9.442	 r	 1
14	 U	 1	 48	 0	 x	 L	 12.012	 l	 0
14	 U	 1	 49	 1	 right	 R	 3.012	 r	 0
14	 U	 1	 50	 0	 x	 R	 18.713	 r	 1
14	 U	 1	 51	 0	 x	 R	 13.272	 r	 1
14	 U	 1	 52	 1	 left	 L	 1.931	 l	 1
14	 U	 1	 53	 0	 x	 L	 9.322	 r	 1
14	 U	 1	 54	 0	 x	 L	 9.432	 r	 1
14	 U	 1	 55	 0	 x	 R	 14.842	 r	 1
14	 U	 1	 56	 1	 right	 R	 0.871	 l	 1
14	 U	 1	 57	 1	 right	 L	 10.712	 r	 0
14	 U	 1	 58	 0	 x	 L	 12.722	 r	 1
14	 U	 1	 59	 1	 right	 R	 0.981	 l	 1
14	 U	 1	 60	 0	 x	 R	 15.282	 r	 1
14	 U	 1	 61	 0	 x	 R	 11.702	 r	 1
14	 U	 1	 62	 1	 right	 L	 9.422	 r	 0
14	 U	 1	 63	 0	 x	 R	 15.922	 r	 1
14	 U	 1	 64	 1	 right	 L	 11.822	 r	 0
14	 U	 1	 65	 1	 right	 R	 1.141	 l	 1
14	 U	 1	 66	 0	 x	 R	 12.932	 r	 1
14	 U	 1	 67	 1	 right	 R	 0.661	 l	 1
14	 U	 1	 68	 1	 left	 L	 0.712	 l	 1
14	 U	 1	 69	 0	 x	 L	 19.353	 r	 1
14	 U	 1	 70	 1	 right	 L	 3.411	 l	 1
14	 U	 1	 71	 1	 right	 R	 1.172	 l	 1
14	 U	 1	 72	 0	 x	 L	 17.382	 l	 0
14	 U	 1	 73	 0	 x	 L	 10.962	 r	 1
14	 U	 1	 74	 0	 x	 L	 12.662	 r	 1
14	 U	 1	 75	 0	 x	 L	 7.891	 r	 1
14	 U	 1	 76	 0	 x	 R	 14.303	 r	 1
14	 U	 1	 77	 1	 right	 L	 8.372	 r	 0
14	 U	 1	 78	 1	 left	 R	 15.042	 r	 0
14	 U	 1	 79	 1	 right	 L	 13.582	 r	 0
14	 U	 1	 80	 0	 x	 L	 15.263	 r	 1
14	 U	 1	 81	 0	 x	 L	 15.493	 r	 1
14	 U	 1	 82	 0	 x	 R	 13.842	 r	 1
14	 U	 1	 83	 0	 x	 L	 11.632	 r	 1
14	 U	 1	 84	 0	 x	 R	 7.441	 r	 1
14	 U	 1	 85	 1	 left	 R	 8.482	 r	 0
14	 U	 1	 86	 0	 x	 L	 10.272	 r	 1
14	 U	 1	 87	 1	 left	 L	 0.671	 r	 0
14	 U	 1	 88	 1	 left	 R	 6.632	 l	 1
14	 U	 1	 89	 1	 left	 L	 0.842	 l	 1
14	 U	 1	 90	 1	 right	 R	 0.811	 l	 1
14	 U	 1	 91	 1	 right	 L	 11.032	 r	 0
14	 U	 1	 92	 0	 x	 L	 16.852	 r	 1
14	 U	 1	 93	 1	 left	 R	 10.312	 r	 0
14	 U	 1	 94	 0	 x	 L	 6.871	 r	 1
14	 U	 1	 95	 1	 right	 L	 10.502	 r	 0
14	 U	 1	 96	 0	 x	 R	 9.842	 r	 1
15	 T	 1	 1	 1	 right	 R	 3.071	 l	 1
15	 T	 1	 2	 0	 x	 L	 3.162	 r	 1
15	 T	 1	 3	 0	 x	 L	 2.801	 r	 1
15	 T	 1	 4	 1	 right	 L	 2.721	 r	 0
15	 T	 1	 5	 0	 x	 R	 2.861	 r	 1
15	 T	 1	 6	 0	 x	 L	 2.781	 r	 1
15	 T	 1	 7	 1	 left	 R	 2.632	 r	 0
15	 T	 1	 8	 0	 x	 R	 2.921	 r	 1
15	 T	 1	 9	 1	 left	 L	 1.411	 l	 1
15	 T	 1	 10	 1	 right	 L	 2.762	 r	 0
15	 T	 1	 11	 1	 left	 R	 3.192	 r	 0
15	 T	 1	 12	 0	 x	 L	 2.941	 l	 0
15	 T	 1	 13	 0	 x	 R	 2.841	 r	 1
15	 T	 1	 14	 1	 right	 L	 3.041	 l	 1
15	 T	 1	 15	 0	 x	 L	 3.212	 r	 1
15	 T	 1	 16	 1	 right	 L	 2.861	 r	 0
15	 T	 1	 17	 0	 x	 L	 2.732	 r	 1
15	 T	 1	 18	 1	 left	 L	 1.062	 l	 1
15	 T	 1	 19	 1	 left	 L	 0.981	 l	 1
15	 T	 1	 20	 0	 x	 R	 2.572	 r	 1
15	 T	 1	 21	 0	 x	 L	 3.992	 l	 0
15	 T	 1	 22	 0	 x	 R	 2.421	 r	 1
15	 T	 1	 23	 0	 x	 R	 3.412	 r	 1
15	 T	 1	 24	 1	 right	 L	 2.661	 r	 0
15	 T	 1	 25	 0	 x	 L	 2.941	 r	 1
15	 T	 1	 26	 1	 right	 L	 3.352	 r	 0
15	 T	 1	 27	 0	 x	 R	 2.951	 l	 0
15	 T	 1	 28	 0	 x	 L	 2.882	 l	 0
15	 T	 1	 29	 1	 right	 R	 1.051	 l	 1
15	 T	 1	 30	 0	 x	 R	 2.361	 r	 1
15	 T	 1	 31	 1	 right	 R	 1.322	 l	 1
15	 T	 1	 32	 1	 left	 L	 0.922	 l	 1
15	 T	 1	 33	 0	 x	 L	 2.481	 r	 1
15	 T	 1	 34	 1	 left	 L	 0.861	 l	 1
15	 T	 1	 35	 1	 left	 R	 2.642	 r	 0
15	 T	 1	 36	 1	 left	 L	 1.031	 l	 1
15	 T	 1	 37	 1	 right	 L	 2.781	 r	 0
15	 T	 1	 38	 0	 x	 L	 3.002	 r	 1
15	 T	 1	 39	 1	 left	 R	 2.951	 r	 0
15	 T	 1	 40	 1	 right	 R	 0.941	 l	 1
15	 T	 1	 41	 0	 x	 R	 2.792	 r	 1
15	 T	 1	 42	 1	 left	 L	 0.941	 l	 1
15	 T	 1	 43	 0	 x	 R	 2.941	 r	 1
15	 T	 1	 44	 0	 x	 R	 2.782	 r	 1
15	 T	 1	 45	 0	 x	 L	 3.161	 l	 0
15	 T	 1	 46	 1	 left	 R	 3.012	 r	 0
15	 T	 1	 47	 1	 left	 R	 2.652	 r	 0
15	 T	 1	 48	 1	 right	 R	 1.001	 l	 1
15	 T	 1	 49	 1	 right	 L	 2.601	 r	 0
15	 T	 1	 50	 0	 x	 L	 3.222	 r	 1
15	 T	 1	 51	 0	 x	 R	 3.411	 l	 0
15	 T	 1	 52	 0	 x	 L	 2.831	 r	 1
15	 T	 1	 53	 1	 left	 L	 0.852	 l	 1
15	 T	 1	 54	 0	 x	 R	 2.742	 r	 1
15	 T	 1	 55	 0	 x	 L	 2.711	 r	 1
15	 T	 1	 56	 1	 right	 R	 1.141	 l	 1
15	 T	 1	 57	 1	 left	 R	 2.761	 r	 0
15	 T	 1	 58	 0	 x	 R	 2.772	 r	 1
15	 T	 1	 59	 0	 x	 R	 2.721	 r	 1
15	 T	 1	 60	 1	 right	 L	 2.061	 l	 1
15	 T	 1	 61	 0	 x	 L	 2.511	 r	 1
15	 T	 1	 62	 1	 left	 R	 2.821	 r	 0
15	 T	 1	 63	 0	 x	 L	 2.721	 r	 1
15	 T	 1	 64	 0	 x	 L	 2.762	 r	 1
15	 T	 1	 65	 1	 right	 R	 0.892	 l	 1
15	 T	 1	 66	 1	 left	 R	 3.141	 r	 0
15	 T	 1	 67	 1	 left	 R	 2.971	 r	 0
15	 T	 1	 68	 1	 right	 L	 2.442	 r	 0
15	 T	 1	 69	 0	 x	 R	 2.372	 r	 1
15	 T	 1	 70	 1	 right	 L	 2.781	 r	 0
15	 T	 1	 71	 0	 x	 L	 3.332	 r	 1
15	 T	 1	 72	 1	 left	 L	 0.891	 l	 1
15	 T	 1	 73	 1	 left	 L	 0.651	 l	 1
15	 T	 1	 74	 0	 x	 R	 2.461	 r	 1
15	 T	 1	 75	 1	 left	 L	 0.802	 l	 1
15	 T	 1	 76	 1	 right	 L	 2.601	 r	 0
15	 T	 1	 77	 1	 left	 R	 2.491	 r	 0
15	 T	 1	 78	 1	 right	 R	 0.881	 l	 1
15	 T	 1	 79	 0	 x	 R	 2.722	 r	 1
15	 T	 1	 80	 0	 x	 R	 2.851	 r	 1
15	 T	 1	 81	 0	 x	 R	 2.652	 r	 1
15	 T	 1	 82	 1	 left	 R	 3.021	 r	 0
15	 T	 1	 83	 0	 x	 L	 2.571	 r	 1
15	 T	 1	 84	 0	 x	 R	 2.482	 r	 1
15	 T	 1	 85	 1	 left	 L	 0.921	 l	 1
15	 T	 1	 86	 1	 right	 R	 0.681	 l	 1
15	 T	 1	 87	 0	 x	 L	 2.452	 r	 1
15	 T	 1	 88	 0	 x	 L	 2.522	 r	 1
15	 T	 1	 89	 0	 x	 R	 3.161	 l	 0
15	 T	 1	 90	 1	 right	 R	 0.671	 l	 1
15	 T	 1	 91	 0	 x	 R	 2.471	 r	 1
15	 T	 1	 92	 1	 right	 R	 0.921	 l	 1
15	 T	 1	 93	 0	 x	 R	 2.461	 r	 1
15	 T	 1	 94	 0	 x	 L	 2.581	 r	 1
15	 T	 1	 95	 1	 right	 R	 0.912	 l	 1
15	 T	 1	 96	 0	 x	 L	 2.821	 r	 1
15	 U	 2	 1	 0	 x	 R	 5.292	 r	 1
15	 U	 2	 2	 1	 left	 R	 3.962	 r	 0
15	 U	 2	 3	 0	 x	 R	 4.762	 r	 1
15	 U	 2	 4	 0	 x	 L	 4.761	 r	 1
15	 U	 2	 5	 1	 left	 R	 5.912	 r	 0
15	 U	 2	 6	 1	 left	 R	 7.402	 r	 0
15	 U	 2	 7	 0	 x	 R	 10.992	 l	 0
15	 U	 2	 8	 0	 x	 R	 7.932	 r	 1
15	 U	 2	 9	 0	 x	 L	 8.621	 r	 1
15	 U	 2	 10	 0	 x	 R	 0.271	 x	 1
15	 U	 2	 11	 1	 left	 L	 1.151	 l	 1
15	 U	 2	 12	 0	 x	 R	 5.422	 r	 1
15	 U	 2	 13	 0	 x	 R	 3.481	 r	 1
15	 U	 2	 14	 0	 x	 R	 4.982	 r	 1
15	 U	 2	 15	 1	 right	 L	 6.421	 l	 1
15	 U	 2	 16	 1	 right	 R	 1.062	 l	 1
15	 U	 2	 17	 0	 x	 R	 5.181	 r	 1
15	 U	 2	 18	 1	 right	 L	 5.642	 r	 0
15	 U	 2	 19	 0	 x	 R	 5.681	 r	 1
15	 U	 2	 20	 1	 left	 L	 0.941	 l	 1
15	 U	 2	 21	 0	 x	 L	 5.322	 r	 1
15	 U	 2	 22	 1	 right	 R	 0.941	 l	 1
15	 U	 2	 23	 0	 x	 R	 4.372	 r	 1
15	 U	 2	 24	 1	 right	 R	 0.961	 l	 1
15	 U	 2	 25	 0	 x	 L	 5.271	 r	 1
15	 U	 2	 26	 1	 right	 R	 0.821	 l	 1
15	 U	 2	 27	 1	 right	 L	 5.481	 r	 0
15	 U	 2	 28	 0	 x	 R	 3.982	 r	 1
15	 U	 2	 29	 1	 right	 L	 6.731	 r	 0
15	 U	 2	 30	 0	 x	 R	 5.302	 r	 1
15	 U	 2	 31	 1	 right	 R	 0.841	 l	 1
15	 U	 2	 32	 1	 left	 R	 5.292	 l	 1
15	 U	 2	 33	 1	 right	 R	 0.832	 l	 1
15	 U	 2	 34	 1	 left	 R	 5.791	 r	 0
15	 U	 2	 35	 0	 x	 L	 6.112	 r	 1
15	 U	 2	 36	 0	 x	 L	 4.951	 r	 1
15	 U	 2	 37	 1	 left	 R	 5.032	 l	 1
15	 U	 2	 38	 1	 right	 L	 4.751	 r	 0
15	 U	 2	 39	 1	 right	 L	 5.362	 r	 0
15	 U	 2	 40	 0	 x	 R	 7.192	 r	 1
15	 U	 2	 41	 0	 x	 R	 5.911	 r	 1
15	 U	 2	 42	 0	 x	 L	 5.042	 r	 1
15	 U	 2	 43	 0	 x	 R	 4.621	 r	 1
15	 U	 2	 44	 1	 right	 L	 5.642	 r	 0
15	 U	 2	 45	 0	 x	 L	 5.922	 r	 1
15	 U	 2	 46	 0	 x	 L	 6.602	 r	 1
15	 U	 2	 47	 1	 left	 R	 7.042	 r	 0
15	 U	 2	 48	 1	 right	 L	 7.451	 r	 0
15	 U	 2	 49	 0	 x	 R	 7.542	 r	 1
15	 U	 2	 50	 1	 right	 L	 5.442	 r	 0
15	 U	 2	 51	 1	 left	 L	 0.941	 l	 1
15	 U	 2	 52	 0	 x	 L	 6.432	 r	 1
15	 U	 2	 53	 1	 left	 L	 1.062	 l	 1
15	 U	 2	 54	 1	 right	 R	 0.691	 l	 1
15	 U	 2	 55	 0	 x	 L	 6.361	 r	 1
15	 U	 2	 56	 1	 left	 L	 0.841	 l	 1
15	 U	 2	 57	 1	 right	 L	 7.611	 r	 0
15	 U	 2	 58	 0	 x	 L	 4.992	 r	 1
15	 U	 2	 59	 1	 left	 R	 5.352	 l	 1
15	 U	 2	 60	 1	 left	 L	 0.862	 l	 1
15	 U	 2	 61	 0	 x	 L	 7.891	 r	 1
15	 U	 2	 62	 0	 x	 L	 5.412	 r	 1
15	 U	 2	 63	 1	 left	 L	 0.761	 l	 1
15	 U	 2	 64	 0	 x	 R	 6.322	 r	 1
15	 U	 2	 65	 1	 left	 L	 0.731	 l	 1
15	 U	 2	 66	 1	 right	 R	 0.751	 l	 1
15	 U	 2	 67	 1	 left	 R	 7.332	 r	 0
15	 U	 2	 68	 1	 right	 R	 0.791	 l	 1
15	 U	 2	 69	 1	 left	 L	 0.831	 l	 1
15	 U	 2	 70	 1	 right	 L	 6.532	 r	 0
15	 U	 2	 71	 0	 x	 L	 4.561	 r	 1
15	 U	 2	 72	 1	 right	 R	 0.792	 l	 1
15	 U	 2	 73	 1	 left	 R	 8.411	 r	 0
15	 U	 2	 74	 0	 x	 L	 6.552	 r	 1
15	 U	 2	 75	 0	 x	 L	 5.991	 r	 1
15	 U	 2	 76	 0	 x	 R	 6.261	 r	 1
15	 U	 2	 77	 1	 left	 R	 9.352	 r	 0
15	 U	 2	 78	 0	 x	 R	 7.631	 r	 1
15	 U	 2	 79	 0	 x	 L	 7.801	 r	 1
15	 U	 2	 80	 1	 left	 R	 10.452	 r	 0
15	 U	 2	 81	 1	 left	 L	 1.061	 l	 1
15	 U	 2	 82	 0	 x	 L	 5.822	 r	 1
15	 U	 2	 83	 0	 x	 L	 6.841	 r	 1
15	 U	 2	 84	 0	 x	 R	 7.502	 r	 1
15	 U	 2	 85	 0	 x	 L	 7.242	 r	 1
15	 U	 2	 86	 1	 left	 L	 0.881	 l	 1
15	 U	 2	 87	 1	 right	 L	 7.612	 r	 0
15	 U	 2	 88	 0	 x	 L	 6.002	 r	 1
15	 U	 2	 89	 0	 x	 R	 8.211	 r	 1
15	 U	 2	 90	 0	 x	 R	 6.332	 r	 1
15	 U	 2	 91	 1	 left	 L	 0.971	 l	 1
15	 U	 2	 92	 0	 x	 R	 6.502	 r	 1
15	 U	 2	 93	 1	 right	 R	 0.891	 l	 1
15	 U	 2	 94	 1	 right	 R	 0.551	 l	 1
15	 U	 2	 95	 0	 x	 L	 8.392	 r	 1
15	 U	 2	 96	 0	 x	 L	 7.732	 r	 1
16	 T	 2	 1	 1	 right	 L	 2.421	 r	 0
16	 T	 2	 2	 0	 x	 R	 2.831	 l	 0
16	 T	 2	 3	 0	 x	 L	 2.412	 r	 1
16	 T	 2	 4	 1	 left	 L	 0.891	 l	 1
16	 T	 2	 5	 0	 x	 L	 2.681	 r	 1
16	 T	 2	 6	 1	 left	 L	 0.751	 l	 1
16	 T	 2	 7	 1	 left	 L	 0.772	 l	 1
16	 T	 2	 8	 0	 x	 R	 2.431	 l	 0
16	 T	 2	 9	 1	 left	 R	 2.341	 r	 0
16	 T	 2	 10	 0	 x	 L	 2.482	 l	 0
16	 T	 2	 11	 0	 x	 R	 2.481	 r	 1
16	 T	 2	 12	 1	 left	 R	 2.751	 r	 0
16	 T	 2	 13	 1	 left	 R	 2.472	 r	 0
16	 T	 2	 14	 1	 left	 R	 2.721	 l	 1
16	 T	 2	 15	 1	 right	 L	 3.311	 r	 0
16	 T	 2	 16	 1	 right	 R	 0.701	 l	 1
16	 T	 2	 17	 1	 right	 L	 2.272	 l	 1
16	 T	 2	 18	 0	 x	 L	 3.031	 l	 0
16	 T	 2	 19	 1	 right	 L	 2.402	 r	 0
16	 T	 2	 20	 1	 left	 R	 2.621	 l	 1
16	 T	 2	 21	 1	 left	 R	 2.682	 l	 1
16	 T	 2	 22	 1	 left	 L	 0.802	 l	 1
16	 T	 2	 23	 0	 x	 L	 1.881	 r	 1
16	 T	 2	 24	 0	 x	 R	 2.621	 l	 0
16	 T	 2	 25	 0	 x	 R	 2.082	 r	 1
16	 T	 2	 26	 1	 left	 L	 0.801	 l	 1
16	 T	 2	 27	 0	 x	 L	 2.561	 l	 0
16	 T	 2	 28	 1	 right	 L	 2.702	 r	 0
16	 T	 2	 29	 0	 x	 R	 2.481	 l	 0
16	 T	 2	 30	 1	 left	 R	 2.331	 r	 0
16	 T	 2	 31	 0	 x	 R	 2.602	 r	 1
16	 T	 2	 32	 0	 x	 L	 2.572	 l	 0
16	 T	 2	 33	 0	 x	 L	 3.822	 r	 1
16	 T	 2	 34	 1	 right	 R	 0.951	 l	 1
16	 T	 2	 35	 1	 right	 R	 1.561	 l	 1
16	 T	 2	 36	 1	 left	 R	 2.491	 r	 0
16	 T	 2	 37	 0	 x	 L	 2.751	 r	 1
16	 T	 2	 38	 1	 left	 R	 2.812	 r	 0
16	 T	 2	 39	 0	 x	 L	 2.712	 l	 0
16	 T	 2	 40	 1	 left	 R	 2.661	 l	 1
16	 T	 2	 41	 1	 left	 L	 0.811	 l	 1
16	 T	 2	 42	 1	 right	 R	 0.872	 l	 1
16	 T	 2	 43	 1	 right	 R	 0.662	 l	 1
16	 T	 2	 44	 1	 right	 L	 2.281	 r	 0
16	 T	 2	 45	 0	 x	 R	 2.491	 l	 0
16	 T	 2	 46	 1	 right	 R	 0.732	 l	 1
16	 T	 2	 47	 0	 x	 R	 2.671	 x	 1
16	 T	 2	 48	 0	 x	 R	 2.561	 l	 0
16	 T	 2	 49	 0	 x	 R	 2.311	 r	 1
16	 T	 2	 50	 1	 left	 R	 2.272	 r	 0
16	 T	 2	 51	 1	 right	 L	 1.411	 r	 0
16	 T	 2	 52	 1	 left	 L	 0.601	 l	 1
16	 T	 2	 53	 0	 x	 R	 2.712	 r	 1
16	 T	 2	 54	 0	 x	 R	 2.471	 r	 1
16	 T	 2	 55	 0	 x	 R	 2.801	 r	 1
16	 T	 2	 56	 0	 x	 L	 2.362	 l	 0
16	 T	 2	 57	 1	 right	 R	 0.582	 l	 1
16	 T	 2	 58	 0	 x	 L	 2.731	 l	 0
16	 T	 2	 59	 1	 right	 L	 2.351	 r	 0
16	 T	 2	 60	 0	 x	 L	 2.442	 l	 0
16	 T	 2	 61	 0	 x	 L	 2.481	 r	 1
16	 T	 2	 62	 0	 x	 L	 2.371	 r	 1
16	 T	 2	 63	 1	 left	 L	 0.721	 l	 1
16	 T	 2	 64	 0	 x	 L	 2.592	 r	 1
16	 T	 2	 65	 1	 right	 L	 2.581	 r	 0
16	 T	 2	 66	 1	 right	 L	 2.441	 l	 1
16	 T	 2	 67	 0	 x	 L	 2.621	 r	 1
16	 T	 2	 68	 0	 x	 L	 2.592	 r	 1
16	 T	 2	 69	 1	 left	 R	 2.631	 r	 0
16	 T	 2	 70	 0	 x	 R	 2.881	 r	 1
16	 T	 2	 71	 0	 x	 R	 2.622	 l	 0
16	 T	 2	 72	 0	 x	 R	 2.551	 r	 1
16	 T	 2	 73	 1	 right	 R	 2.481	 r	 0
16	 T	 2	 74	 1	 right	 R	 0.922	 l	 1
16	 T	 2	 75	 0	 x	 L	 2.371	 r	 1
16	 T	 2	 76	 1	 right	 R	 0.611	 l	 1
16	 T	 2	 77	 0	 x	 L	 2.502	 r	 1
16	 T	 2	 78	 0	 x	 R	 2.631	 r	 1
16	 T	 2	 79	 1	 right	 L	 2.631	 r	 0
16	 T	 2	 80	 1	 right	 R	 0.671	 l	 1
16	 T	 2	 81	 0	 x	 R	 2.472	 r	 1
16	 T	 2	 82	 0	 x	 L	 2.481	 l	 0
16	 T	 2	 83	 1	 left	 L	 0.801	 l	 1
16	 T	 2	 84	 0	 x	 R	 2.591	 l	 0
16	 T	 2	 85	 1	 left	 L	 0.792	 l	 1
16	 T	 2	 86	 1	 right	 L	 2.381	 r	 0
16	 T	 2	 87	 0	 x	 R	 2.571	 r	 1
16	 T	 2	 88	 0	 x	 R	 2.292	 r	 1
16	 T	 2	 89	 0	 x	 L	 2.372	 r	 1
16	 T	 2	 90	 0	 x	 L	 2.321	 r	 1
16	 T	 2	 91	 0	 x	 L	 2.561	 r	 1
16	 T	 2	 92	 1	 right	 R	 1.071	 l	 1
16	 T	 2	 93	 0	 x	 R	 2.352	 r	 1
16	 T	 2	 94	 1	 left	 L	 0.671	 l	 1
16	 T	 2	 95	 0	 x	 R	 2.431	 r	 1
16	 T	 2	 96	 1	 left	 L	 0.751	 l	 1
16	 U	 1	 1	 0	 x	 R	 5.782	 r	 1
16	 U	 1	 2	 0	 x	 L	 4.501	 r	 1
16	 U	 1	 3	 0	 x	 R	 6.352	 r	 1
16	 U	 1	 4	 0	 x	 L	 8.202	 r	 1
16	 U	 1	 5	 0	 x	 L	 9.031	 r	 1
16	 U	 1	 6	 1	 left	 L	 1.502	 l	 1
16	 U	 1	 7	 1	 right	 L	 8.381	 r	 0
16	 U	 1	 8	 0	 x	 R	 9.102	 r	 1
16	 U	 1	 9	 0	 x	 L	 8.422	 r	 1
16	 U	 1	 10	 1	 right	 L	 4.362	 l	 1
16	 U	 1	 11	 0	 x	 R	 9.902	 r	 1
16	 U	 1	 12	 1	 right	 R	 1.822	 l	 1
16	 U	 1	 13	 1	 left	 R	 7.431	 r	 0
16	 U	 1	 14	 1	 left	 L	 2.052	 l	 1
16	 U	 1	 15	 0	 x	 L	 9.622	 r	 1
16	 U	 1	 16	 1	 left	 R	 10.322	 r	 0
16	 U	 1	 17	 1	 right	 R	 1.211	 l	 1
16	 U	 1	 18	 1	 left	 L	 1.321	 l	 1
16	 U	 1	 19	 1	 right	 L	 12.962	 r	 0
16	 U	 1	 20	 1	 left	 L	 1.141	 l	 1
16	 U	 1	 21	 1	 right	 L	 15.353	 r	 0
16	 U	 1	 22	 1	 left	 L	 1.161	 l	 1
16	 U	 1	 23	 1	 left	 R	 20.622	 r	 0
16	 U	 1	 24	 1	 left	 R	 15.573	 r	 0
16	 U	 1	 25	 0	 x	 R	 15.422	 r	 1
16	 U	 1	 26	 1	 right	 R	 1.141	 l	 1
16	 U	 1	 27	 1	 left	 R	 18.453	 r	 0
16	 U	 1	 28	 0	 x	 L	 15.992	 r	 1
16	 U	 1	 29	 0	 x	 L	 6.532	 l	 0
16	 U	 1	 30	 0	 x	 L	 12.782	 r	 1
16	 U	 1	 31	 0	 x	 R	 8.972	 r	 1
16	 U	 1	 32	 0	 x	 L	 14.092	 r	 1
16	 U	 1	 33	 1	 right	 L	 13.342	 l	 1
16	 U	 1	 34	 1	 left	 R	 9.362	 l	 1
16	 U	 1	 35	 1	 right	 L	 7.781	 l	 1
16	 U	 1	 36	 0	 x	 R	 9.582	 r	 1
16	 U	 1	 37	 0	 x	 R	 8.342	 l	 0
16	 U	 1	 38	 1	 right	 L	 18.373	 r	 0
16	 U	 1	 39	 0	 x	 R	 20.642	 r	 1
16	 U	 1	 40	 1	 left	 L	 1.611	 l	 1
16	 U	 1	 41	 0	 x	 R	 25.883	 r	 1
16	 U	 1	 42	 1	 right	 L	 17.783	 r	 0
16	 U	 1	 43	 0	 x	 L	 15.002	 r	 1
16	 U	 1	 44	 1	 left	 R	 20.353	 r	 0
16	 U	 1	 45	 0	 x	 R	 16.603	 r	 1
16	 U	 1	 46	 0	 x	 R	 4.701	 l	 0
16	 U	 1	 47	 0	 x	 R	 20.793	 r	 1
16	 U	 1	 48	 0	 x	 R	 16.722	 r	 1
16	 U	 1	 49	 0	 x	 L	 17.883	 r	 1
16	 U	 1	 50	 0	 x	 L	 18.153	 r	 1
16	 U	 1	 51	 1	 left	 R	 6.022	 l	 1
16	 U	 1	 52	 0	 x	 R	 25.523	 r	 1
16	 U	 1	 53	 1	 left	 R	 11.812	 l	 1
16	 U	 1	 54	 0	 x	 R	 24.683	 r	 1
16	 U	 1	 55	 1	 left	 L	 1.481	 l	 1
16	 U	 1	 56	 0	 x	 L	 22.823	 r	 1
16	 U	 1	 57	 1	 right	 R	 1.051	 l	 1
16	 U	 1	 58	 0	 x	 L	 13.782	 r	 1
16	 U	 1	 59	 1	 left	 L	 0.912	 l	 1
16	 U	 1	 60	 0	 x	 L	 19.793	 r	 1
16	 U	 1	 61	 1	 right	 R	 1.102	 l	 1
16	 U	 1	 62	 0	 x	 L	 15.503	 r	 1
16	 U	 1	 63	 1	 right	 R	 0.962	 l	 1
16	 U	 1	 64	 1	 right	 L	 7.612	 l	 1
16	 U	 1	 65	 0	 x	 R	 9.312	 r	 1
16	 U	 1	 66	 1	 right	 R	 0.701	 l	 1
16	 U	 1	 67	 1	 left	 L	 0.692	 l	 1
16	 U	 1	 68	 0	 x	 R	 11.471	 r	 1
16	 U	 1	 69	 0	 x	 R	 10.632	 r	 1
16	 U	 1	 70	 1	 left	 L	 0.901	 l	 1
16	 U	 1	 71	 1	 right	 R	 0.911	 l	 1
16	 U	 1	 72	 1	 right	 R	 0.881	 l	 1
16	 U	 1	 73	 1	 left	 R	 15.442	 r	 0
16	 U	 1	 74	 0	 x	 R	 17.713	 r	 1
16	 U	 1	 75	 0	 x	 L	 15.542	 r	 1
16	 U	 1	 76	 0	 x	 L	 11.482	 r	 1
16	 U	 1	 77	 1	 right	 R	 0.831	 l	 1
16	 U	 1	 78	 0	 x	 R	 16.773	 r	 1
16	 U	 1	 79	 0	 x	 R	 15.982	 l	 0
16	 U	 1	 80	 1	 right	 L	 11.112	 r	 0
16	 U	 1	 81	 0	 x	 L	 14.441	 r	 1
16	 U	 1	 82	 0	 x	 L	 18.973	 r	 1
16	 U	 1	 83	 0	 x	 L	 18.723	 r	 1
16	 U	 1	 84	 1	 left	 L	 0.821	 l	 1
16	 U	 1	 85	 1	 left	 L	 0.821	 l	 1
16	 U	 1	 86	 1	 left	 R	 15.752	 r	 0
16	 U	 1	 87	 1	 right	 R	 0.692	 l	 1
16	 U	 1	 88	 1	 right	 R	 0.661	 l	 1
16	 U	 1	 89	 1	 left	 R	 14.802	 r	 0
16	 U	 1	 90	 0	 x	 L	 18.462	 r	 1
16	 U	 1	 91	 0	 x	 L	 13.672	 r	 1
16	 U	 1	 92	 1	 right	 L	 12.252	 r	 0
16	 U	 1	 93	 1	 right	 L	 19.663	 r	 0
16	 U	 1	 94	 0	 x	 L	 6.932	 l	 0
16	 U	 1	 95	 0	 x	 R	 15.113	 r	 1
16	 U	 1	 96	 0	 x	 R	 12.492	 r	 1
17	 T	 1	 1	 0	 x	 R	 4.991	 r	 1
17	 T	 1	 2	 1	 right	 L	 4.102	 r	 0
17	 T	 1	 3	 0	 x	 L	 4.271	 r	 1
17	 T	 1	 4	 0	 x	 L	 3.172	 l	 0
17	 T	 1	 5	 0	 x	 R	 4.421	 r	 1
17	 T	 1	 6	 1	 left	 R	 3.192	 r	 0
17	 T	 1	 7	 0	 x	 L	 3.311	 r	 1
17	 T	 1	 8	 0	 x	 R	 4.671	 r	 1
17	 T	 1	 9	 0	 x	 R	 3.681	 l	 0
17	 T	 1	 10	 1	 right	 L	 3.062	 l	 1
17	 T	 1	 11	 0	 x	 R	 2.841	 r	 1
17	 T	 1	 12	 0	 x	 R	 2.812	 l	 0
17	 T	 1	 13	 0	 x	 R	 3.081	 r	 1
17	 T	 1	 14	 1	 right	 R	 0.941	 r	 0
17	 T	 1	 15	 1	 left	 L	 1.531	 l	 1
17	 T	 1	 16	 0	 x	 L	 2.172	 l	 0
17	 T	 1	 17	 0	 x	 R	 3.211	 l	 0
17	 T	 1	 18	 0	 x	 R	 3.281	 r	 1
17	 T	 1	 19	 0	 x	 L	 3.062	 r	 1
17	 T	 1	 20	 1	 left	 R	 3.561	 r	 0
17	 T	 1	 21	 1	 right	 L	 3.182	 r	 0
17	 T	 1	 22	 0	 x	 R	 3.051	 r	 1
17	 T	 1	 23	 1	 left	 R	 3.051	 r	 0
17	 T	 1	 24	 0	 x	 L	 3.111	 r	 1
17	 T	 1	 25	 1	 left	 R	 3.171	 r	 0
17	 T	 1	 26	 1	 right	 L	 4.371	 r	 0
17	 T	 1	 27	 1	 right	 R	 1.772	 l	 1
17	 T	 1	 28	 1	 right	 L	 3.322	 r	 0
17	 T	 1	 29	 1	 left	 L	 2.991	 l	 1
17	 T	 1	 30	 1	 right	 R	 2.532	 l	 1
17	 T	 1	 31	 0	 x	 L	 3.181	 r	 1
17	 T	 1	 32	 1	 right	 R	 1.182	 l	 1
17	 T	 1	 33	 0	 x	 L	 4.652	 r	 1
17	 T	 1	 34	 0	 x	 L	 3.681	 r	 1
17	 T	 1	 35	 1	 right	 R	 1.002	 l	 1
17	 T	 1	 36	 1	 right	 R	 1.382	 l	 1
17	 T	 1	 37	 1	 left	 L	 0.581	 l	 1
17	 T	 1	 38	 0	 x	 L	 2.781	 r	 1
17	 T	 1	 39	 1	 left	 R	 3.442	 l	 1
17	 T	 1	 40	 0	 x	 L	 2.741	 r	 1
17	 T	 1	 41	 1	 right	 R	 0.921	 l	 1
17	 T	 1	 42	 0	 x	 L	 2.581	 r	 1
17	 T	 1	 43	 1	 left	 L	 0.852	 l	 1
17	 T	 1	 44	 1	 left	 R	 2.811	 l	 1
17	 T	 1	 45	 1	 right	 L	 3.521	 r	 0
17	 T	 1	 46	 0	 x	 L	 2.572	 r	 1
17	 T	 1	 47	 0	 x	 L	 2.932	 r	 1
17	 T	 1	 48	 0	 x	 R	 2.601	 r	 1
17	 T	 1	 49	 0	 x	 R	 2.612	 l	 0
17	 T	 1	 50	 1	 left	 R	 1.822	 l	 1
17	 T	 1	 51	 0	 x	 R	 2.711	 r	 1
17	 T	 1	 52	 1	 right	 L	 2.431	 r	 0
17	 T	 1	 53	 1	 left	 L	 0.651	 l	 1
17	 T	 1	 54	 1	 left	 L	 0.941	 l	 1
17	 T	 1	 55	 1	 left	 L	 0.781	 l	 1
17	 T	 1	 56	 1	 left	 R	 2.711	 r	 0
17	 T	 1	 57	 0	 x	 L	 2.802	 r	 1
17	 T	 1	 58	 0	 x	 L	 2.742	 r	 1
17	 T	 1	 59	 0	 x	 R	 2.481	 r	 1
17	 T	 1	 60	 1	 right	 L	 2.712	 r	 0
17	 T	 1	 61	 1	 right	 R	 0.771	 l	 1
17	 T	 1	 62	 1	 left	 L	 0.681	 l	 1
17	 T	 1	 63	 0	 x	 L	 3.281	 l	 0
17	 T	 1	 64	 1	 right	 R	 0.762	 l	 1
17	 T	 1	 65	 0	 x	 L	 3.952	 r	 1
17	 T	 1	 66	 1	 left	 L	 0.801	 l	 1
17	 T	 1	 67	 0	 x	 L	 2.821	 r	 1
17	 T	 1	 68	 1	 left	 L	 0.692	 l	 1
17	 T	 1	 69	 1	 left	 R	 2.882	 r	 0
17	 T	 1	 70	 0	 x	 R	 3.431	 r	 1
17	 T	 1	 71	 1	 left	 R	 2.532	 r	 0
17	 T	 1	 72	 1	 right	 L	 1.922	 l	 1
17	 T	 1	 73	 1	 left	 R	 3.481	 r	 0
17	 T	 1	 74	 1	 left	 R	 2.632	 r	 0
17	 T	 1	 75	 0	 x	 L	 2.342	 r	 1
17	 T	 1	 76	 1	 right	 L	 3.031	 r	 0
17	 T	 1	 77	 0	 x	 L	 2.631	 r	 1
17	 T	 1	 78	 1	 right	 R	 0.651	 l	 1
17	 T	 1	 79	 1	 left	 L	 0.691	 l	 1
17	 T	 1	 80	 0	 x	 R	 3.101	 r	 1
17	 T	 1	 81	 0	 x	 R	 2.621	 r	 1
17	 T	 1	 82	 0	 x	 R	 2.702	 r	 1
17	 T	 1	 83	 1	 right	 R	 0.961	 l	 1
17	 T	 1	 84	 0	 x	 R	 3.091	 r	 1
17	 T	 1	 85	 0	 x	 R	 2.732	 l	 0
17	 T	 1	 86	 0	 x	 R	 3.522	 r	 1
17	 T	 1	 87	 1	 right	 L	 2.691	 r	 0
17	 T	 1	 88	 1	 right	 R	 0.772	 l	 1
17	 T	 1	 89	 0	 x	 R	 2.762	 r	 1
17	 T	 1	 90	 0	 x	 R	 2.721	 r	 1
17	 T	 1	 91	 0	 x	 L	 2.571	 r	 1
17	 T	 1	 92	 1	 right	 L	 2.632	 r	 0
17	 T	 1	 93	 0	 x	 L	 2.782	 r	 1
17	 T	 1	 94	 0	 x	 L	 2.611	 r	 1
17	 T	 1	 95	 0	 x	 R	 2.591	 r	 1
17	 T	 1	 96	 1	 left	 L	 1.132	 l	 1
17	 U	 2	 1	 0	 x	 L	 5.161	 r	 1
17	 U	 2	 2	 0	 x	 L	 7.512	 r	 1
17	 U	 2	 3	 0	 x	 R	 3.802	 r	 1
17	 U	 2	 4	 0	 x	 L	 3.851	 r	 1
17	 U	 2	 5	 0	 x	 R	 5.812	 r	 1
17	 U	 2	 6	 1	 left	 R	 3.661	 r	 0
17	 U	 2	 7	 0	 x	 L	 0.351	 r	 1
17	 U	 2	 8	 1	 left	 R	 5.802	 l	 1
17	 U	 2	 9	 0	 x	 R	 6.821	 r	 1
17	 U	 2	 10	 1	 left	 L	 0.852	 l	 1
17	 U	 2	 11	 0	 x	 L	 4.572	 r	 1
17	 U	 2	 12	 1	 right	 L	 6.001	 r	 0
17	 U	 2	 13	 1	 left	 L	 1.042	 l	 1
17	 U	 2	 14	 0	 x	 R	 6.071	 r	 1
17	 U	 2	 15	 1	 left	 L	 0.772	 l	 1
17	 U	 2	 16	 0	 x	 R	 5.152	 r	 1
17	 U	 2	 17	 1	 left	 L	 0.801	 l	 1
17	 U	 2	 18	 1	 left	 L	 0.761	 l	 1
17	 U	 2	 19	 0	 x	 L	 4.282	 r	 1
17	 U	 2	 20	 1	 right	 L	 4.071	 r	 0
17	 U	 2	 21	 1	 right	 L	 5.092	 r	 0
17	 U	 2	 22	 0	 x	 R	 5.192	 r	 1
17	 U	 2	 23	 0	 x	 R	 5.332	 r	 1
17	 U	 2	 24	 0	 x	 R	 5.221	 r	 1
17	 U	 2	 25	 1	 left	 R	 5.101	 r	 0
17	 U	 2	 26	 1	 left	 R	 4.891	 r	 0
17	 U	 2	 27	 1	 left	 R	 6.782	 r	 0
17	 U	 2	 28	 0	 x	 L	 7.802	 r	 1
17	 U	 2	 29	 0	 x	 R	 4.981	 r	 1
17	 U	 2	 30	 0	 x	 L	 5.952	 r	 1
17	 U	 2	 31	 0	 x	 L	 10.882	 r	 1
17	 U	 2	 32	 1	 right	 L	 9.761	 r	 0
17	 U	 2	 33	 0	 x	 L	 6.751	 r	 1
17	 U	 2	 34	 1	 right	 R	 0.681	 r	 0
17	 U	 2	 35	 0	 x	 L	 3.532	 r	 1
17	 U	 2	 36	 0	 x	 L	 10.142	 r	 1
17	 U	 2	 37	 0	 x	 R	 6.962	 r	 1
17	 U	 2	 38	 1	 left	 R	 10.652	 r	 0
17	 U	 2	 39	 0	 x	 R	 11.052	 r	 1
17	 U	 2	 40	 1	 right	 L	 6.662	 r	 0
17	 U	 2	 41	 1	 right	 R	 0.941	 l	 1
17	 U	 2	 42	 0	 x	 L	 8.331	 r	 1
17	 U	 2	 43	 0	 x	 L	 9.462	 r	 1
17	 U	 2	 44	 0	 x	 R	 10.522	 r	 1
17	 U	 2	 45	 1	 right	 L	 7.862	 r	 0
17	 U	 2	 46	 1	 right	 L	 2.651	 l	 1
17	 U	 2	 47	 1	 right	 R	 0.931	 l	 1
17	 U	 2	 48	 1	 right	 R	 0.722	 l	 1
17	 U	 2	 49	 0	 x	 L	 9.621	 r	 1
17	 U	 2	 50	 1	 left	 R	 10.162	 r	 0
17	 U	 2	 51	 0	 x	 L	 7.392	 r	 1
17	 U	 2	 52	 1	 right	 L	 8.791	 r	 0
17	 U	 2	 53	 0	 x	 R	 10.272	 r	 1
17	 U	 2	 54	 0	 x	 L	 9.552	 r	 1
17	 U	 2	 55	 1	 left	 L	 0.891	 l	 1
17	 U	 2	 56	 0	 x	 R	 10.772	 r	 1
17	 U	 2	 57	 0	 x	 R	 9.792	 r	 1
17	 U	 2	 58	 1	 left	 L	 0.621	 l	 1
17	 U	 2	 59	 0	 x	 L	 11.482	 r	 1
17	 U	 2	 60	 1	 left	 R	 10.082	 r	 0
17	 U	 2	 61	 0	 x	 L	 8.762	 r	 1
17	 U	 2	 62	 1	 left	 R	 13.842	 r	 0
17	 U	 2	 63	 1	 right	 R	 0.671	 l	 1
17	 U	 2	 64	 1	 left	 L	 0.741	 l	 1
17	 U	 2	 65	 1	 left	 R	 4.962	 l	 1
17	 U	 2	 66	 0	 x	 R	 9.502	 r	 1
17	 U	 2	 67	 0	 x	 L	 7.322	 r	 1
17	 U	 2	 68	 0	 x	 L	 9.902	 r	 1
17	 U	 2	 69	 1	 right	 R	 0.911	 l	 1
17	 U	 2	 70	 1	 left	 L	 0.691	 l	 1
17	 U	 2	 71	 1	 right	 L	 3.842	 l	 1
17	 U	 2	 72	 1	 right	 R	 0.621	 l	 1
17	 U	 2	 73	 1	 right	 L	 5.122	 l	 1
17	 U	 2	 74	 1	 left	 L	 0.882	 l	 1
17	 U	 2	 75	 1	 right	 R	 0.771	 l	 1
17	 U	 2	 76	 0	 x	 R	 15.912	 r	 1
17	 U	 2	 77	 1	 right	 L	 2.221	 l	 1
17	 U	 2	 78	 1	 right	 R	 0.602	 l	 1
17	 U	 2	 79	 1	 left	 R	 3.851	 l	 1
