person, deadline, block, trialNum, trialType, targetPresent, targTheta, targLocX, targLocY, targVar, response, rt
1, 0, 1, , half, 112.000, 114, 101, 115.000, 101, 110.000
116, 7.853982e-01, 28, , 5.235988e-01, 1.000, 2.313078e+00, 1, 0, 1, , half, 112.000, 114, 101, 115.000, 101, 110.000
116, 7.853982e-01, 23, , 2.094395e+00, -1.000, 2.314929e+00, 1, 0, 1, , half, 112.000, 114, 101, 115.000, 101, 110.000
116, 7.853982e-01, 23, , 5.235988e-01, 1.000, 1.065813e+00, 1, 0, 1, , half, 112.000, 114, 101, 115.000, 101, 110.000
116, 7.853982e-01, 28, , 5.235988e-01, 1.000, 1.089607e+00, 1, 0, 1, , half, 112.000, 114, 101, 115.000, 101, 110.000
116, 7.853982e-01, 19, , 5.235988e-01, 1.000, 1.853481e+00, 1, 0, 1, , half, 97.000, 98, 115, 101.000, 110, 116.000
7.853982e-01, NaN, NaN, NaN, , 3.454, 1, 0, 1, , half, 97.000, 98, 115, 101.000, 110, 116.000
7.853982e-01, NaN, NaN, NaN, -1.000000e+00, 2.532, 1, 0, 1, , half, 97.000, 98, 115, 101.000, 110, 116.000
7.853982e-01, NaN, NaN, NaN, -1.000000e+00, 2.257, 1, 0, 1, 	, half, 97.000, 98, 115, 101.000, 110, 116.000
7.853982e-01, NaN, NaN, NaN, -1.000000e+00, 2.271, 1, 0, 1, 
, half, 97.000, 98, 115, 101.000, 110, 116.000
7.853982e-01, NaN, NaN, NaN, -1.000000e+00, 2.365, 1, 0, 2, , half, 112.000, 114, 101, 115.000, 101, 110.000
116, -7.853982e-01, 3, , 5.235988e-01, 1.000, 2.345003e+00, 1, 0, 2, , half, 97.000, 98, 115, 101.000, 110, 116.000
-7.853982e-01, NaN, NaN, NaN, -1.000000e+00, 2.618, 1, 0, 2, , half, 97.000, 98, 115, 101.000, 110, 116.000
-7.853982e-01, NaN, NaN, NaN, -1.000000e+00, 1.783, 1, 0, 2, , half, 112.000, 114, 101, 115.000, 101, 110.000
116, -7.853982e-01, 27, , 5.235988e-01, 1.000, 1.276134e+00, 1, 0, 2, , half, 112.000, 114, 101, 115.000, 101, 110.000
116, -7.853982e-01, 23, , 5.235988e-01, 1.000, 8.886356e-01, 1, 0, 2, , half, 97.000, 98, 115, 101.000, 110, 116.000
-7.853982e-01, NaN, NaN, NaN, -1.000000e+00, 2.331, 1, 0, 2, , half, 112.000, 114, 101, 115.000, 101, 110.000
116, -7.853982e-01, 10, 	, 2.094395e+00, -1.000, 1.304420e+00, 1, 0, 2, , half, 97.000, 98, 115, 101.000, 110, 116.000
-7.853982e-01, NaN, NaN, NaN, -1.000000e+00, 2.755, 1, 0, 2, 	, half, 112.000, 114, 101, 115.000, 101, 110.000
116, -7.853982e-01, 19, , 5.235988e-01, 1.000, 1.102800e+00, 1, 0, 2, 
, half, 97.000, 98, 115, 101.000, 110, 116.000
-7.853982e-01, NaN, NaN, NaN, -1.000000e+00, 2.547, 