person, deadline, block, trialNum, trialType, targetPresent, targTheta, targLocX, targLocY, targVar, response, rt
800, 0, 1, , half, 97.000, 98, 115, 101.000, 110, 116.000
7.853982e-01, NaN, NaN, NaN, -1.000000e+00, 5.195, 800, 0, 1, , half, 112.000, 114, 101, 115.000, 101, 110.000
116, 7.853982e-01, 7, , 5.235988e-01, 1.000, 1.035265e+00, 800, 0, 1, , half, 112.000, 114, 101, 115.000, 101, 110.000
116, 7.853982e-01, 15, , 2.094395e+00, 1.000, 7.694397e+00, 800, 0, 1, , half, 97.000, 98, 115, 101.000, 110, 116.000
7.853982e-01, NaN, NaN, NaN, -1.000000e+00, 6.560, 800, 0, 1, , half, 112.000, 114, 101, 115.000, 101, 110.000
116, 7.853982e-01, 14, , 2.094395e+00, -1.000, 7.211525e+00, 800, 0, 1, , half, 97.000, 98, 115, 101.000, 110, 116.000
7.853982e-01, NaN, NaN, NaN, , 8.147, 800, 0, 1, , half, 112.000, 114, 101, 115.000, 101, 110.000
116, 7.853982e-01, 14, , 5.235988e-01, 1.000, 2.273515e+00, 800, 0, 1, , half, 97.000, 98, 115, 101.000, 110, 116.000
7.853982e-01, NaN, NaN, NaN, -1.000000e+00, 13.336, 800, 0, 1, 	, half, 97.000, 98, 115, 101.000, 110, 116.000
7.853982e-01, NaN, NaN, NaN, , 7.249, 800, 0, 1, 
, half, 112.000, 114, 101, 115.000, 101, 110.000
116, 7.853982e-01, 2, , 2.094395e+00, 1.000, 9.330540e+00, 800, 0, 1, , half, 97.000, 98, 115, 101.000, 110, 116.000
7.853982e-01, NaN, NaN, NaN, -1.000000e+00, 8.553, 800, 0, 1, , half, 97.000, 98, 115, 101.000, 110, 116.000
7.853982e-01, NaN, NaN, NaN, -1.000000e+00, 5.705, 800, 0, 1, , half, 112.000, 114, 101, 115.000, 101, 110.000
116, 7.853982e-01, 23, , 2.094395e+00, -1.000, 1.050898e+01, 800, 0, 1, , half, 112.000, 114, 101, 115.000, 101, 110.000
116, 7.853982e-01, 7, 
, 5.235988e-01, 1.000, 1.031613e+00, 800, 0, 1, , half, 112.000, 114, 101, 115.000, 101, 110.000
116, 7.853982e-01, 6, , 5.235988e-01, 1.000, 2.350257e+00, 800, 0, 1, , half, 97.000, 98, 115, 101.000, 110, 116.000
7.853982e-01, NaN, NaN, NaN, -1.000000e+00, 9.622, 800, 0, 1, , half, 112.000, 114, 101, 115.000, 101, 110.000
116, 7.853982e-01, 30, , 5.235988e-01, 1.000, 8.452543e-01, 800, 0, 1, , half, 112.000, 114, 101, 115.000, 101, 110.000
116, 7.853982e-01, 12, , 2.094395e+00, -1.000, 6.649881e+00, 800, 0, 1, , half, 97.000, 98, 115, 101.000, 110, 116.000
7.853982e-01, NaN, NaN, NaN, -1.000000e+00, 8.058, 800, 0, 1, , half, 97.000, 98, 115, 101.000, 110, 116.000
7.853982e-01, NaN, NaN, NaN, -1.000000e+00, 7.972, 800, 0, 1, , half, 97.000, 98, 115, 101.000, 110, 116.000
7.853982e-01, NaN, NaN, NaN, -1.000000e+00, 5.570, 800, 0, 1, , half, 112.000, 114, 101, 115.000, 101, 110.000
116, 7.853982e-01, 7, , 2.094395e+00, 1.000, 8.906228e+00, 800, 0, 1, , half, 112.000, 114, 101, 115.000, 101, 110.000
116, 7.853982e-01, 2, , 5.235988e-01, 1.000, 8.456017e-01, 800, 0, 1, , half, 97.000, 98, 115, 101.000, 110, 116.000
7.853982e-01, NaN, NaN, NaN, -1.000000e+00, 15.074, 800, 0, 1, , half, 112.000, 114, 101, 115.000, 101, 110.000
116, 7.853982e-01, 10, , 2.094395e+00, -1.000, 1.101557e+01, 800, 0, 1, , half, 97.000, 98, 115, 101.000, 110, 116.000
7.853982e-01, NaN, NaN, NaN, , 6.520, 800, 0, 1, , half, 97.000, 98, 115, 101.000, 110, 116.000
7.853982e-01, NaN, NaN, NaN, -1.000000e+00, 11.882, 800, 0, 1, , half, 112.000, 114, 101, 115.000, 101, 110.000
116, 7.853982e-01, 23, , 5.235988e-01, 1.000, 4.098159e+00, 800, 0, 1, , half, 112.000, 114, 101, 115.000, 101, 110.000
116, 7.853982e-01, 2, , 5.235988e-01, 1.000, 8.753394e-01, 800, 0, 1, , half, 97.000, 98, 115, 101.000, 110, 116.000
7.853982e-01, NaN, NaN, NaN, -1.000000e+00, 10.680, 800, 0, 2, , half, 112.000, 114, 101, 115.000, 101, 110.000
116, -7.853982e-01, 25, , 5.235988e-01, 1.000, 1.183207e+00, 800, 0, 2, , half, 112.000, 114, 101, 115.000, 101, 110.000
116, -7.853982e-01, 3, 	, 5.235988e-01, 1.000, 1.153108e+00, 800, 0, 2, , half, 97.000, 98, 115, 101.000, 110, 116.000
-7.853982e-01, NaN, NaN, NaN, -1.000000e+00, 8.784, 800, 0, 2, , half, 112.000, 114, 101, 115.000, 101, 110.000
116, -7.853982e-01, 29, , 5.235988e-01, 1.000, 1.262918e+00, 800, 0, 2, , half, 97.000, 98, 115, 101.000, 110, 116.000
-7.853982e-01, NaN, NaN, NaN, -1.000000e+00, 8.612, 800, 0, 2, , half, 112.000, 114, 101, 115.000, 101, 110.000
116, -7.853982e-01, 9, , 2.094395e+00, -1.000, 5.475588e+00, 800, 0, 2, , half, 97.000, 98, 115, 101.000, 110, 116.000
-7.853982e-01, NaN, NaN, NaN, -1.000000e+00, 9.137, 800, 0, 2, , half, 112.000, 114, 101, 115.000, 101, 110.000
116, -7.853982e-01, 2, 
, 2.094395e+00, -1.000, 7.635738e+00, 800, 0, 2, 	, half, 97.000, 98, 115, 101.000, 110, 116.000
-7.853982e-01, NaN, NaN, NaN, -1.000000e+00, 16.885, 800, 0, 2, 
, half, 112.000, 114, 101, 115.000, 101, 110.000
116, -7.853982e-01, 14, 
, 2.094395e+00, -1.000, 8.784323e+00, 800, 0, 2, , half, 112.000, 114, 101, 115.000, 101, 110.000
116, -7.853982e-01, 2, , 2.094395e+00, -1.000, 1.118802e+01, 800, 0, 2, , half, 112.000, 114, 101, 115.000, 101, 110.000
116, -7.853982e-01, 27, , 5.235988e-01, 1.000, 1.012215e+00, 800, 0, 2, , half, 112.000, 114, 101, 115.000, 101, 110.000
116, -7.853982e-01, 26, , 5.235988e-01, 1.000, 8.485213e-01, 800, 0, 2, , half, 112.000, 114, 101, 115.000, 101, 110.000
116, -7.853982e-01, 20, , 5.235988e-01, 1.000, 9.321501e-01, 800, 0, 2, , half, 97.000, 98, 115, 101.000, 110, 116.000
-7.853982e-01, NaN, NaN, NaN, , 2.445, 800, 0, 2, , half, 112.000, 114, 101, 115.000, 101, 110.000
116, -7.853982e-01, 19, , 2.094395e+00, -1.000, 9.899520e+00, 800, 0, 2, , half, 97.000, 98, 115, 101.000, 110, 116.000
-7.853982e-01, NaN, NaN, NaN, -1.000000e+00, 14.528, 800, 0, 2, , half, 112.000, 114, 101, 115.000, 101, 110.000
116, -7.853982e-01, 25, , 2.094395e+00, -1.000, 1.033510e+01, 800, 0, 2, , half, 97.000, 98, 115, 101.000, 110, 116.000
-7.853982e-01, NaN, NaN, NaN, -1.000000e+00, 9.722, 800, 0, 2, , half, 112.000, 114, 101, 115.000, 101, 110.000
116, -7.853982e-01, 23, , 5.235988e-01, 1.000, 1.428119e+00, 800, 0, 2, , half, 97.000, 98, 115, 101.000, 110, 116.000
-7.853982e-01, NaN, NaN, NaN, -1.000000e+00, 15.390, 800, 0, 2, , half, 97.000, 98, 115, 101.000, 110, 116.000
-7.853982e-01, NaN, NaN, NaN, , 11.336, 800, 0, 2, , half, 97.000, 98, 115, 101.000, 110, 116.000
-7.853982e-01, NaN, NaN, NaN, -1.000000e+00, 15.531, 800, 0, 2, , half, 112.000, 114, 101, 115.000, 101, 110.000
116, -7.853982e-01, 3, , 2.094395e+00, -1.000, 5.134254e+00, 800, 0, 2, , half, 97.000, 98, 115, 101.000, 110, 116.000
-7.853982e-01, NaN, NaN, NaN, -1.000000e+00, 7.864, 800, 0, 2, , half, 97.000, 98, 115, 101.000, 110, 116.000
-7.853982e-01, NaN, NaN, NaN, -1.000000e+00, 18.968, 800, 0, 2, , half, 97.000, 98, 115, 101.000, 110, 116.000
-7.853982e-01, NaN, NaN, NaN, -1.000000e+00, 7.993, 800, 0, 2, , half, 97.000, 98, 115, 101.000, 110, 116.000
-7.853982e-01, NaN, NaN, NaN, -1.000000e+00, 16.733, 800, 0, 2, , half, 112.000, 114, 101, 115.000, 101, 110.000
116, -7.853982e-01, 7, , 5.235988e-01, 1.000, 1.721959e+00, 800, 0, 2, , half, 97.000, 98, 115, 101.000, 110, 116.000
-7.853982e-01, NaN, NaN, NaN, -1.000000e+00, 31.980, 