person, deadline, block, trialNum, trialType, targetPresent, targTheta, targLocX, targLocY, targVar, response, rt
500, 0, 1, , half, p, -7.853982e-01, NaN, NaN, NaN, -1.000000e+00, 10.768
500, 0, 1, , half, a, 116, -7.853982e-01, 4, , 5.235988e-01, 1.000, 5.531341e-01
500, 0, 1, , half, p, -7.853982e-01, NaN, NaN, NaN, -1.000000e+00, 6.326
500, 0, 1, , half, a, 116, -7.853982e-01, 22, , 2.094395e+00, -1.000, 8.034377e+00
500, 0, 1, , half, a, 116, -7.853982e-01, 11, 	, 2.094395e+00, -1.000, 1.065523e+01
500, 0, 1, , half, a, 116, -7.853982e-01, 22, , 2.094395e+00, -1.000, 9.998458e+00
500, 0, 1, , half, a, 116, -7.853982e-01, 11, , 2.094395e+00, -1.000, 1.974635e+01
500, 0, 1, , half, a, 116, -7.853982e-01, 2, , 2.094395e+00, -1.000, 2.193414e+01
500, 0, 1, 	, half, a, 116, -7.853982e-01, 6, , 5.235988e-01, 1.000, 7.690981e-01
500, 0, 1, , half, a, 116, -7.853982e-01, 19, , 5.235988e-01, 1.000, 8.067157e-01
500, 0, 1, , half, a, 116, -7.853982e-01, 13, , 2.094395e+00, -1.000, 1.731565e+01
500, 0, 1, , half, p, -7.853982e-01, NaN, NaN, NaN, -1.000000e+00, 1.452
500, 0, 1, , half, a, 116, -7.853982e-01, 25, , 2.094395e+00, 1.000, 3.070901e+00
500, 0, 1, , half, p, -7.853982e-01, NaN, NaN, NaN, , 15.990
500, 0, 1, , half, a, 116, -7.853982e-01, 20, , 5.235988e-01, 1.000, 1.381324e+00
500, 0, 1, , half, p, -7.853982e-01, NaN, NaN, NaN, -1.000000e+00, 4.082
500, 0, 1, , half, a, 116, -7.853982e-01, 14, , 5.235988e-01, 1.000, 1.822254e+00
500, 0, 1, , half, p, -7.853982e-01, NaN, NaN, NaN, -1.000000e+00, 2.119
500, 0, 1, , half, p, -7.853982e-01, NaN, NaN, NaN, , 5.958
500, 0, 1, , half, p, -7.853982e-01, NaN, NaN, NaN, -1.000000e+00, 1.441
500, 0, 1, , half, p, -7.853982e-01, NaN, NaN, NaN, -1.000000e+00, 1.929
500, 0, 1, , half, a, 116, -7.853982e-01, 5, , 2.094395e+00, -1.000, 3.072203e+00
500, 0, 1, , half, p, -7.853982e-01, NaN, NaN, NaN, -1.000000e+00, 5.420
500, 0, 1, , half, p, -7.853982e-01, NaN, NaN, NaN, -1.000000e+00, 2.110
500, 0, 1, , half, p, -7.853982e-01, NaN, NaN, NaN, -1.000000e+00, 2.794
500, 0, 1, , half, a, 116, -7.853982e-01, 29, , 5.235988e-01, 1.000, 7.104774e-01
500, 0, 1, , half, p, -7.853982e-01, NaN, NaN, NaN, -1.000000e+00, 1.994
500, 0, 1, , half, a, 116, -7.853982e-01, 7, , 5.235988e-01, 1.000, 6.288317e-01
500, 0, 1, , half, p, -7.853982e-01, NaN, NaN, NaN, -1.000000e+00, 4.167
500, 0, 1, , half, p, -7.853982e-01, NaN, NaN, NaN, -1.000000e+00, 6.423
500, 0, 2, , half, p, 7.853982e-01, NaN, NaN, NaN, -1.000000e+00, 1.465
500, 0, 2, , half, p, 7.853982e-01, NaN, NaN, NaN, -1.000000e+00, 1.806
500, 0, 2, , half, a, 116, 7.853982e-01, 25, , 5.235988e-01, 1.000, 6.905398e-01
500, 0, 2, , half, p, 7.853982e-01, NaN, NaN, NaN, -1.000000e+00, 1.721
500, 0, 2, , half, a, 116, 7.853982e-01, 29, , 2.094395e+00, -1.000, 6.552416e+00
500, 0, 2, , half, a, 116, 7.853982e-01, 25, , 2.094395e+00, -1.000, 7.156418e+00
500, 0, 2, , half, a, 116, 7.853982e-01, 8, , 5.235988e-01, 1.000, 7.433662e-01
500, 0, 2, , half, a, 116, 7.853982e-01, 31, , 5.235988e-01, 1.000, 7.422085e-01
500, 0, 2, 	, half, a, 116, 7.853982e-01, 14, 	, 2.094395e+00, -1.000, 1.245798e+00
500, 0, 2, , half, p, 7.853982e-01, NaN, NaN, NaN, -1.000000e+00, 9.479
500, 0, 2, , half, p, 7.853982e-01, NaN, NaN, NaN, -1.000000e+00, 7.160
500, 0, 2, , half, p, 7.853982e-01, NaN, NaN, NaN, -1.000000e+00, 9.241
500, 0, 2, , half, p, 7.853982e-01, NaN, NaN, NaN, -1.000000e+00, 6.437
500, 0, 2, , half, a, 116, 7.853982e-01, 8, , 5.235988e-01, 1.000, 8.131419e-01
500, 0, 2, , half, a, 116, 7.853982e-01, 31, , 2.094395e+00, -1.000, 2.054042e+00
500, 0, 2, , half, a, 116, 7.853982e-01, 25, , 2.094395e+00, -1.000, 5.468051e+00
500, 0, 2, , half, p, 7.853982e-01, NaN, NaN, NaN, -1.000000e+00, 5.838
500, 0, 2, , half, a, 116, 7.853982e-01, 9, , 5.235988e-01, 1.000, 7.399111e-01
500, 0, 2, , half, a, 116, 7.853982e-01, 25, , 2.094395e+00, -1.000, 2.515758e+00
500, 0, 2, , half, p, 7.853982e-01, NaN, NaN, NaN, -1.000000e+00, 4.658
500, 0, 2, , half, p, 7.853982e-01, NaN, NaN, NaN, -1.000000e+00, 2.298
500, 0, 2, , half, p, 7.853982e-01, NaN, NaN, NaN, -1.000000e+00, 1.907
500, 0, 2, , half, a, 116, 7.853982e-01, 4, , 5.235988e-01, 1.000, 5.610082e-01
500, 0, 2, , half, a, 116, 7.853982e-01, 10, , 5.235988e-01, 1.000, 5.368823e-01
500, 0, 2, , half, p, 7.853982e-01, NaN, NaN, NaN, -1.000000e+00, 2.189
500, 0, 2, , half, p, 7.853982e-01, NaN, NaN, NaN, -1.000000e+00, 3.981
500, 0, 2, , half, p, 7.853982e-01, NaN, NaN, NaN, , 1.829
500, 0, 2, , half, a, 116, 7.853982e-01, 19, , 2.094395e+00, -1.000, 5.784035e+00
500, 0, 2, , half, p, 7.853982e-01, NaN, NaN, NaN, -1.000000e+00, 2.257
500, 0, 2, , half, a, 116, 7.853982e-01, 8, , 2.094395e+00, -1.000, 3.535225e+00, 