person, deadline, block, trialNum, trialType, targetPresent, targTheta, targLocX, targLocY, targVar, response, rt
600, 0, 1, , half, 112.000, 114, 101, 115.000, 101, 110.000
116, 7.853982e-01, 22, , 5.235988e-01, 1.000, 1.468873e+00, 600, 0, 1, , half, 97.000, 98, 115, 101.000, 110, 116.000
7.853982e-01, NaN, NaN, NaN, -1.000000e+00, 1.312, 600, 0, 1, , half, 97.000, 98, 115, 101.000, 110, 116.000
7.853982e-01, NaN, NaN, NaN, , 1.575, 600, 0, 1, , half, 112.000, 114, 101, 115.000, 101, 110.000
116, 7.853982e-01, 15, , 2.094395e+00, 1.000, 2.460679e+00, 600, 0, 1, , half, 112.000, 114, 101, 115.000, 101, 110.000
116, 7.853982e-01, 2, , 2.094395e+00, 1.000, 1.136345e+00, 600, 0, 1, , half, 97.000, 98, 115, 101.000, 110, 116.000
7.853982e-01, NaN, NaN, NaN, , 1.899, 600, 0, 1, , half, 97.000, 98, 115, 101.000, 110, 116.000
7.853982e-01, NaN, NaN, NaN, , 2.005, 600, 0, 1, , half, 112.000, 114, 101, 115.000, 101, 110.000
116, 7.853982e-01, 8, , 5.235988e-01, 1.000, 2.488173e+00, 600, 0, 1, 	, half, 112.000, 114, 101, 115.000, 101, 110.000
116, 7.853982e-01, 14, , 5.235988e-01, 1.000, 1.478763e+00, 600, 0, 1, 
, half, 112.000, 114, 101, 115.000, 101, 110.000
116, 7.853982e-01, 21, , 2.094395e+00, -1.000, 1.642024e+00, 600, 0, 1, , half, 112.000, 114, 101, 115.000, 101, 110.000
116, 7.853982e-01, 11, , 5.235988e-01, 1.000, 3.534719e+00, 600, 0, 1, , half, 97.000, 98, 115, 101.000, 110, 116.000
7.853982e-01, NaN, NaN, NaN, , 1.464, 600, 0, 1, , half, 112.000, 114, 101, 115.000, 101, 110.000
116, 7.853982e-01, 6, , 5.235988e-01, 1.000, 1.133967e+00, 600, 0, 1, , half, 112.000, 114, 101, 115.000, 101, 110.000
116, 7.853982e-01, 15, , 2.094395e+00, -1.000, 1.404881e+00, 600, 0, 1, , half, 97.000, 98, 115, 101.000, 110, 116.000
7.853982e-01, NaN, NaN, NaN, -1.000000e+00, 1.804, 600, 0, 1, , half, 112.000, 114, 101, 115.000, 101, 110.000
116, 7.853982e-01, 31, 	, 2.094395e+00, -1.000, 2.060210e+00, 600, 0, 1, , half, 97.000, 98, 115, 101.000, 110, 116.000
7.853982e-01, NaN, NaN, NaN, -1.000000e+00, 1.315, 600, 0, 1, , half, 97.000, 98, 115, 101.000, 110, 116.000
7.853982e-01, NaN, NaN, NaN, -1.000000e+00, 1.787, 600, 0, 1, , half, 97.000, 98, 115, 101.000, 110, 116.000
7.853982e-01, NaN, NaN, NaN, -1.000000e+00, 1.289, 600, 0, 1, , half, 97.000, 98, 115, 101.000, 110, 116.000
7.853982e-01, NaN, NaN, NaN, -1.000000e+00, 1.289, 600, 0, 1, , half, 97.000, 98, 115, 101.000, 110, 116.000
7.853982e-01, NaN, NaN, NaN, -1.000000e+00, 1.209, 600, 0, 1, , half, 112.000, 114, 101, 115.000, 101, 110.000
116, 7.853982e-01, 21, , 2.094395e+00, -1.000, 1.520833e+00, 600, 0, 1, , half, 112.000, 114, 101, 115.000, 101, 110.000
116, 7.853982e-01, 30, , 5.235988e-01, -1.000, 1.990374e+00, 600, 0, 1, , half, 97.000, 98, 115, 101.000, 110, 116.000
7.853982e-01, NaN, NaN, NaN, -1.000000e+00, 3.707, 600, 0, 1, , half, 112.000, 114, 101, 115.000, 101, 110.000
116, 7.853982e-01, 14, , 2.094395e+00, -1.000, 4.221300e+00, 600, 0, 1, , half, 112.000, 114, 101, 115.000, 101, 110.000
116, 7.853982e-01, 21, , 2.094395e+00, -1.000, 3.180826e+00, 600, 0, 1, , half, 97.000, 98, 115, 101.000, 110, 116.000
7.853982e-01, NaN, NaN, NaN, -1.000000e+00, 3.041, 600, 0, 1, , half, 97.000, 98, 115, 101.000, 110, 116.000
7.853982e-01, NaN, NaN, NaN, -1.000000e+00, 1.631, 600, 0, 1, , half, 97.000, 98, 115, 101.000, 110, 116.000
7.853982e-01, NaN, NaN, NaN, -1.000000e+00, 1.147, 600, 0, 1, , half, 112.000, 114, 101, 115.000, 101, 110.000
116, 7.853982e-01, 30, , 2.094395e+00, -1.000, 2.113107e+00, 600, 0, 2, , half, 97.000, 98, 115, 101.000, 110, 116.000
-7.853982e-01, NaN, NaN, NaN, , 1.775, 600, 0, 2, , half, 97.000, 98, 115, 101.000, 110, 116.000
-7.853982e-01, NaN, NaN, NaN, -1.000000e+00, 2.166, 600, 0, 2, , half, 97.000, 98, 115, 101.000, 110, 116.000
-7.853982e-01, NaN, NaN, NaN, -1.000000e+00, 2.000, 600, 0, 2, , half, 97.000, 98, 115, 101.000, 110, 116.000
-7.853982e-01, NaN, NaN, NaN, -1.000000e+00, 2.748, 600, 0, 2, , half, 97.000, 98, 115, 101.000, 110, 116.000
-7.853982e-01, NaN, NaN, NaN, -1.000000e+00, 2.155, 600, 0, 2, , half, 112.000, 114, 101, 115.000, 101, 110.000
116, -7.853982e-01, 11, , 5.235988e-01, 1.000, 1.311561e+00, 600, 0, 2, , half, 112.000, 114, 101, 115.000, 101, 110.000
116, -7.853982e-01, 4, , 5.235988e-01, 1.000, 1.010056e+00, 600, 0, 2, , half, 112.000, 114, 101, 115.000, 101, 110.000
116, -7.853982e-01, 22, , 5.235988e-01, 1.000, 1.082848e+00, 600, 0, 2, 	, half, 112.000, 114, 101, 115.000, 101, 110.000
116, -7.853982e-01, 13, , 2.094395e+00, -1.000, 1.867047e+00, 600, 0, 2, 
, half, 97.000, 98, 115, 101.000, 110, 116.000
-7.853982e-01, NaN, NaN, NaN, -1.000000e+00, 2.156, 600, 0, 2, , half, 112.000, 114, 101, 115.000, 101, 110.000
116, -7.853982e-01, 2, , 5.235988e-01, 1.000, 8.768770e-01, 600, 0, 2, , half, 97.000, 98, 115, 101.000, 110, 116.000
-7.853982e-01, NaN, NaN, NaN, -1.000000e+00, 3.946, 600, 0, 2, , half, 97.000, 98, 115, 101.000, 110, 116.000
-7.853982e-01, NaN, NaN, NaN, -1.000000e+00, 2.578, 600, 0, 2, , half, 112.000, 114, 101, 115.000, 101, 110.000
116, -7.853982e-01, 8, , 2.094395e+00, -1.000, 2.876418e+00, 600, 0, 2, , half, 112.000, 114, 101, 115.000, 101, 110.000
116, -7.853982e-01, 26, , 5.235988e-01, 1.000, 1.094892e+00, 600, 0, 2, , half, 112.000, 114, 101, 115.000, 101, 110.000
116, -7.853982e-01, 21, , 5.235988e-01, 1.000, 1.015724e+00, 600, 0, 2, , half, 112.000, 114, 101, 115.000, 101, 110.000
116, -7.853982e-01, 31, , 2.094395e+00, -1.000, 2.333713e+00, 600, 0, 2, , half, 97.000, 98, 115, 101.000, 110, 116.000
-7.853982e-01, NaN, NaN, NaN, , 2.951, 600, 0, 2, , half, 112.000, 114, 101, 115.000, 101, 110.000
116, -7.853982e-01, 29, , 5.235988e-01, -1.000, 9.276290e-01, 600, 0, 2, , half, 112.000, 114, 101, 115.000, 101, 110.000
116, -7.853982e-01, 25, , 2.094395e+00, 1.000, 1.769976e+00, 600, 0, 2, , half, 97.000, 98, 115, 101.000, 110, 116.000
-7.853982e-01, NaN, NaN, NaN, -1.000000e+00, 1.766, 600, 0, 2, , half, 112.000, 114, 101, 115.000, 101, 110.000
116, -7.853982e-01, 21, , 2.094395e+00, -1.000, 4.242011e+00, 600, 0, 2, , half, 97.000, 98, 115, 101.000, 110, 116.000
-7.853982e-01, NaN, NaN, NaN, -1.000000e+00, 2.476, 600, 0, 2, , half, 97.000, 98, 115, 101.000, 110, 116.000
-7.853982e-01, NaN, NaN, NaN, -1.000000e+00, 3.853, 600, 0, 2, , half, 97.000, 98, 115, 101.000, 110, 116.000
-7.853982e-01, NaN, NaN, NaN, -1.000000e+00, 2.640, 600, 0, 2, , half, 97.000, 98, 115, 101.000, 110, 116.000
-7.853982e-01, NaN, NaN, NaN, -1.000000e+00, 1.063, 600, 0, 2, , half, 112.000, 114, 101, 115.000, 101, 110.000
116, -7.853982e-01, 24, , 5.235988e-01, 1.000, 1.294732e+00, 600, 0, 2, , half, 112.000, 114, 101, 115.000, 101, 110.000
116, -7.853982e-01, 31, , 5.235988e-01, 1.000, 1.243096e+00, 600, 0, 2, , half, 112.000, 114, 101, 115.000, 101, 110.000
116, -7.853982e-01, 11, , 2.094395e+00, -1.000, 3.148559e+00, 600, 0, 2, , half, 97.000, 98, 115, 101.000, 110, 116.000
-7.853982e-01, NaN, NaN, NaN, -1.000000e+00, 2.400, 