person, deadline, block, trialNum, trialType, targetPresent, targTheta, targLocX, targLocY, targVar, response, rt
2, 0, 1, , half, 97.000, 98, 115, 101.000, 110, 116.000
-7.853982e-01, NaN, NaN, NaN, -1.000000e+00, 3.272, 2, 0, 1, , half, 97.000, 98, 115, 101.000, 110, 116.000
-7.853982e-01, NaN, NaN, NaN, -1.000000e+00, 3.283, 2, 0, 1, , half, 97.000, 98, 115, 101.000, 110, 116.000
-7.853982e-01, NaN, NaN, NaN, -1.000000e+00, 2.312, 2, 0, 1, , half, 97.000, 98, 115, 101.000, 110, 116.000
-7.853982e-01, NaN, NaN, NaN, -1.000000e+00, 2.732, 2, 0, 1, , half, 97.000, 98, 115, 101.000, 110, 116.000
-7.853982e-01, NaN, NaN, NaN, -1.000000e+00, 2.497, 2, 0, 1, , half, 112.000, 114, 101, 115.000, 101, 110.000
116, -7.853982e-01, 13, , 5.235988e-01, 1.000, 1.588846e+00, 2, 0, 1, , half, 112.000, 114, 101, 115.000, 101, 110.000
116, -7.853982e-01, 30, , 5.235988e-01, 1.000, 1.304895e+00, 2, 0, 1, , half, 97.000, 98, 115, 101.000, 110, 116.000
-7.853982e-01, NaN, NaN, NaN, -1.000000e+00, 1.635, 2, 0, 1, 	, half, 112.000, 114, 101, 115.000, 101, 110.000
116, -7.853982e-01, 11, , 2.094395e+00, -1.000, 1.779811e+00, 2, 0, 1, 
, half, 97.000, 98, 115, 101.000, 110, 116.000
-7.853982e-01, NaN, NaN, NaN, -1.000000e+00, 2.754, 2, 0, 1, , half, 97.000, 98, 115, 101.000, 110, 116.000
-7.853982e-01, NaN, NaN, NaN, -1.000000e+00, 1.574, 2, 0, 1, , half, 112.000, 114, 101, 115.000, 101, 110.000
116, -7.853982e-01, 10, , 5.235988e-01, 1.000, 1.143716e+00, 2, 0, 1, , half, 112.000, 114, 101, 115.000, 101, 110.000
116, -7.853982e-01, 28, , 5.235988e-01, 1.000, 1.019306e+00, 2, 0, 1, , half, 112.000, 114, 101, 115.000, 101, 110.000
116, -7.853982e-01, 2, , 5.235988e-01, 1.000, 1.195216e+00, 2, 0, 1, , half, 97.000, 98, 115, 101.000, 110, 116.000
-7.853982e-01, NaN, NaN, NaN, -1.000000e+00, 1.716, 2, 0, 1, , half, 112.000, 114, 101, 115.000, 101, 110.000
116, -7.853982e-01, 21, , 2.094395e+00, -1.000, 1.090489e+00, 2, 0, 1, , half, 97.000, 98, 115, 101.000, 110, 116.000
-7.853982e-01, NaN, NaN, NaN, -1.000000e+00, 2.409, 2, 0, 1, , half, 112.000, 114, 101, 115.000, 101, 110.000
116, -7.853982e-01, 4, , 2.094395e+00, -1.000, 1.853495e+00, 2, 0, 1, , half, 97.000, 98, 115, 101.000, 110, 116.000
-7.853982e-01, NaN, NaN, NaN, -1.000000e+00, 3.205, 2, 0, 1, , half, 97.000, 98, 115, 101.000, 110, 116.000
-7.853982e-01, NaN, NaN, NaN, -1.000000e+00, 2.176, 2, 0, 1, , half, 97.000, 98, 115, 101.000, 110, 116.000
-7.853982e-01, NaN, NaN, NaN, -1.000000e+00, 2.507, 2, 0, 1, , half, 112.000, 114, 101, 115.000, 101, 110.000
116, -7.853982e-01, 27, , 2.094395e+00, -1.000, 1.533972e+00, 2, 0, 1, , half, 112.000, 114, 101, 115.000, 101, 110.000
116, -7.853982e-01, 11, , 5.235988e-01, 1.000, 1.412429e+00, 2, 0, 1, , half, 112.000, 114, 101, 115.000, 101, 110.000
116, -7.853982e-01, 24, , 2.094395e+00, -1.000, 2.302054e+00, 2, 0, 1, , half, 97.000, 98, 115, 101.000, 110, 116.000
-7.853982e-01, NaN, NaN, NaN, -1.000000e+00, 4.950, 2, 0, 1, , half, 112.000, 114, 101, 115.000, 101, 110.000
116, -7.853982e-01, 19, , 5.235988e-01, 1.000, 1.258406e+00, 2, 0, 1, , half, 112.000, 114, 101, 115.000, 101, 110.000
116, -7.853982e-01, 22, , 5.235988e-01, 1.000, 8.140429e-01, 2, 0, 1, , half, 112.000, 114, 101, 115.000, 101, 110.000
116, -7.853982e-01, 21, , 2.094395e+00, -1.000, 1.654401e+00, 2, 0, 1, , half, 97.000, 98, 115, 101.000, 110, 116.000
-7.853982e-01, NaN, NaN, NaN, -1.000000e+00, 3.783, 2, 0, 1, , half, 112.000, 114, 101, 115.000, 101, 110.000
116, -7.853982e-01, 10, , 5.235988e-01, 1.000, 1.308972e+00, 2, 0, 2, , half, 97.000, 98, 115, 101.000, 110, 116.000
7.853982e-01, NaN, NaN, NaN, -1.000000e+00, 1.804, 2, 0, 2, , half, 97.000, 98, 115, 101.000, 110, 116.000
7.853982e-01, NaN, NaN, NaN, -1.000000e+00, 2.162, 2, 0, 2, , half, 97.000, 98, 115, 101.000, 110, 116.000
7.853982e-01, NaN, NaN, NaN, -1.000000e+00, 2.620, 2, 0, 2, , half, 112.000, 114, 101, 115.000, 101, 110.000
116, 7.853982e-01, 29, , 5.235988e-01, 1.000, 6.873519e-01, 2, 0, 2, , half, 97.000, 98, 115, 101.000, 110, 116.000
7.853982e-01, NaN, NaN, NaN, -1.000000e+00, 0.827, 2, 0, 2, , half, 112.000, 114, 101, 115.000, 101, 110.000
116, 7.853982e-01, 7, , 2.094395e+00, -1.000, 1.412229e+00, 2, 0, 2, , half, 97.000, 98, 115, 101.000, 110, 116.000
7.853982e-01, NaN, NaN, NaN, -1.000000e+00, 3.773, 2, 0, 2, , half, 112.000, 114, 101, 115.000, 101, 110.000
116, 7.853982e-01, 8, , 2.094395e+00, -1.000, 2.948816e+00, 2, 0, 2, 	, half, 97.000, 98, 115, 101.000, 110, 116.000
7.853982e-01, NaN, NaN, NaN, -1.000000e+00, 2.134, 2, 0, 2, 
, half, 112.000, 114, 101, 115.000, 101, 110.000
116, 7.853982e-01, 15, , 2.094395e+00, -1.000, 2.898385e+00, 2, 0, 2, , half, 112.000, 114, 101, 115.000, 101, 110.000
116, 7.853982e-01, 9, , 2.094395e+00, -1.000, 2.958757e+00, 2, 0, 2, , half, 112.000, 114, 101, 115.000, 101, 110.000
116, 7.853982e-01, 3, , 2.094395e+00, -1.000, 5.552938e+00, 2, 0, 2, , half, 112.000, 114, 101, 115.000, 101, 110.000
116, 7.853982e-01, 20, , 2.094395e+00, 1.000, 4.363775e+00, 2, 0, 2, , half, 112.000, 114, 101, 115.000, 101, 110.000
116, 7.853982e-01, 12, , 2.094395e+00, 1.000, 6.014870e+00, 2, 0, 2, , half, 97.000, 98, 115, 101.000, 110, 116.000
7.853982e-01, NaN, NaN, NaN, -1.000000e+00, 8.227, 2, 0, 2, , half, 97.000, 98, 115, 101.000, 110, 116.000
7.853982e-01, NaN, NaN, NaN, , 2.703, 2, 0, 2, , half, 112.000, 114, 101, 115.000, 101, 110.000
116, 7.853982e-01, 2, , 2.094395e+00, 1.000, 4.460448e+00, 2, 0, 2, , half, 112.000, 114, 101, 115.000, 101, 110.000
116, 7.853982e-01, 6, , 5.235988e-01, 1.000, 1.172619e+00, 2, 0, 2, , half, 97.000, 98, 115, 101.000, 110, 116.000
7.853982e-01, NaN, NaN, NaN, -1.000000e+00, 4.744, 2, 0, 2, , half, 112.000, 114, 101, 115.000, 101, 110.000
116, 7.853982e-01, 28, 	, 2.094395e+00, -1.000, 3.371563e+00, 2, 0, 2, , half, 112.000, 114, 101, 115.000, 101, 110.000
116, 7.853982e-01, 24, , 2.094395e+00, -1.000, 5.272455e+00, 2, 0, 2, , half, 97.000, 98, 115, 101.000, 110, 116.000
7.853982e-01, NaN, NaN, NaN, -1.000000e+00, 5.958, 2, 0, 2, , half, 112.000, 114, 101, 115.000, 101, 110.000
116, 7.853982e-01, 8, , 5.235988e-01, 1.000, 1.158124e+00, 2, 0, 2, , half, 97.000, 98, 115, 101.000, 110, 116.000
7.853982e-01, NaN, NaN, NaN, , 9.539, 2, 0, 2, , half, 97.000, 98, 115, 101.000, 110, 116.000
7.853982e-01, NaN, NaN, NaN, -1.000000e+00, 3.205, 2, 0, 2, , half, 112.000, 114, 101, 115.000, 101, 110.000
116, 7.853982e-01, 9, , 5.235988e-01, 1.000, 1.289937e+00, 2, 0, 2, , half, 97.000, 98, 115, 101.000, 110, 116.000
7.853982e-01, NaN, NaN, NaN, -1.000000e+00, 5.063, 2, 0, 2, , half, 112.000, 114, 101, 115.000, 101, 110.000
116, 7.853982e-01, 18, , 5.235988e-01, 1.000, 1.990199e+00, 2, 0, 2, , half, 97.000, 98, 115, 101.000, 110, 116.000
7.853982e-01, NaN, NaN, NaN, -1.000000e+00, 4.743, 2, 0, 2, , half, 97.000, 98, 115, 101.000, 110, 116.000
7.853982e-01, NaN, NaN, NaN, -1.000000e+00, 2.886, 