person, block, trialNum, trialType, targetPresent, targTheta, targLocX, targLocY, targVar, response, rt
99, 1, , half, 97.000, 98, 115, 101.000, 110, 116.000
-7.853982e-01, NaN, NaN, NaN, -1.000, 9.510848e+00, 99, 1, , easy, 112.000, 114, 101, 115.000, 101, 110.000
116, -7.853982e-01, , , 0.524, 1, 1.258458e+00, 99, 1, , hard, 112.000, 114, 101, 115.000, 101, 110.000
116, -7.853982e-01, 
, , 2.094, -1, 6.406245e+00, 99, 1, , 1overf, 97.000, 98, 115, 101.000, 110, 116.000
-7.853982e-01, NaN, NaN, NaN, -1.000, 6.428592e+00, 99, 1, , easy, 112.000, 114, 101, 115.000, 101, 110.000
116, -7.853982e-01, , , 0.524, 1, 3.527338e+00, 99, 1, , half, 97.000, 98, 115, 101.000, 110, 116.000
-7.853982e-01, NaN, NaN, NaN, -1.000, 5.512201e+00, 99, 1, , 1overf, 112.000, 114, 101, 115.000, 101, 110.000
116, -7.853982e-01, , , 0.845, -1, 5.027470e+00, 99, 1, , easy, 97.000, 98, 115, 101.000, 110, 116.000
-7.853982e-01, NaN, NaN, NaN, -1.000, 3.724659e+00, 99, 1, 	, easy, 97.000, 98, 115, 101.000, 110, 116.000
-7.853982e-01, NaN, NaN, NaN, -1.000, 4.240925e+00, 99, 1, 
, easy, 97.000, 98, 115, 101.000, 110, 116.000
-7.853982e-01, NaN, NaN, NaN, -1.000, 3.959715e+00, 99, 1, , 1overf, 97.000, 98, 115, 101.000, 110, 116.000
-7.853982e-01, NaN, NaN, NaN, -1.000, 7.015891e+00, 99, 1, , 1overf, 112.000, 114, 101, 115.000, 101, 110.000
116, -7.853982e-01, , , 0.932, -1, 5.624510e+00, 99, 1, , easy, 97.000, 98, 115, 101.000, 110, 116.000
-7.853982e-01, NaN, NaN, NaN, -1.000, 4.511346e+00, 99, 1, , hard, 97.000, 98, 115, 101.000, 110, 116.000
-7.853982e-01, NaN, NaN, NaN, 1.000, 5.957360e+00, 99, 1, , half, 97.000, 98, 115, 101.000, 110, 116.000
-7.853982e-01, NaN, NaN, NaN, -1.000, 4.258691e+00, 99, 1, , hard, 97.000, 98, 115, 101.000, 110, 116.000
-7.853982e-01, NaN, NaN, NaN, -1.000, 5.732017e+00, 99, 1, , hard, 112.000, 114, 101, 115.000, 101, 110.000
116, -7.853982e-01, , , 2.094, -1, 7.123671e+00, 99, 1, , half, 112.000, 114, 101, 115.000, 101, 110.000
116, -7.853982e-01, , , 0.524, 1, 2.455294e+00, 99, 1, , half, 112.000, 114, 101, 115.000, 101, 110.000
116, -7.853982e-01, , , 2.094, -1, 5.369058e+00, 99, 1, , easy, 97.000, 98, 115, 101.000, 110, 116.000
-7.853982e-01, NaN, NaN, NaN, -1.000, 2.887712e+00, 99, 1, , half, 97.000, 98, 115, 101.000, 110, 116.000
-7.853982e-01, NaN, NaN, NaN, 1.000, 3.456985e+00, 99, 1, , half, 112.000, 114, 101, 115.000, 101, 110.000
116, -7.853982e-01, , , 0.524, 1, 2.127000e+00, 99, 1, , 1overf, 112.000, 114, 101, 115.000, 101, 110.000
116, -7.853982e-01, , 	, 0.610, -1, 3.124432e+00, 99, 1, , 1overf, 97.000, 98, 115, 101.000, 110, 116.000
-7.853982e-01, NaN, NaN, NaN, -1.000, 3.310119e+00, 99, 1, , 1overf, 97.000, 98, 115, 101.000, 110, 116.000
-7.853982e-01, NaN, NaN, NaN, -1.000, 2.635313e+00, 99, 1, , 1overf, 112.000, 114, 101, 115.000, 101, 110.000
116, -7.853982e-01, , , 1.488, 1, 3.605374e+00, 99, 1, , hard, 112.000, 114, 101, 115.000, 101, 110.000
116, -7.853982e-01, , , 2.094, -1, 4.760137e+00, 99, 1, , hard, 97.000, 98, 115, 101.000, 110, 116.000
-7.853982e-01, NaN, NaN, NaN, -1.000, 4.503441e+00, 99, 1, , easy, 112.000, 114, 101, 115.000, 101, 110.000
116, -7.853982e-01, , , 0.524, 1, 1.022527e+00, 99, 1, , easy, 112.000, 114, 101, 115.000, 101, 110.000
116, -7.853982e-01, , , 0.524, 1, 1.469025e+00, 99, 1, , hard, 112.000, 114, 101, 115.000, 101, 110.000
116, -7.853982e-01, , , 2.094, -1, 3.354620e+00, 99, 1,  , 1overf, 112.000, 114, 101, 115.000, 101, 110.000
116, -7.853982e-01, , 
, 0.845, 1, 2.874574e+00, 99, 1, !, hard, 97.000, 98, 115, 101.000, 110, 116.000
-7.853982e-01, NaN, NaN, NaN, -1.000, 4.130569e+00, 99, 1, ", hard, 112.000, 114, 101, 115.000, 101, 110.000
116, -7.853982e-01, 
, 	, 2.094, 1, 1.712547e+00, 99, 1, #, hard, 97.000, 98, 115, 101.000, 110, 116.000
-7.853982e-01, NaN, NaN, NaN, -1.000, 4.998449e+00, 99, 1, $, half, 97.000, 98, 115, 101.000, 110, 116.000
-7.853982e-01, NaN, NaN, NaN, 1.000, 4.683511e+00, 99, 1, %, 1overf, 97.000, 98, 115, 101.000, 110, 116.000
-7.853982e-01, NaN, NaN, NaN, -1.000, 4.103413e+00, 99, 1, &, half, 112.000, 114, 101, 115.000, 101, 110.000
116, -7.853982e-01, 	, , 0.524, 1, 1.309785e+00, 99, 1, ', half, 112.000, 114, 101, 115.000, 101, 110.000
116, -7.853982e-01, , , 2.094, -1, 4.248240e+00, 99, 1, (, easy, 112.000, 114, 101, 115.000, 101, 110.000
116, -7.853982e-01, , , 0.524, 1, 1.036585e+00, 99, 2, , easy, 97.000, 98, 115, 101.000, 110, 116.000
7.853982e-01, NaN, NaN, NaN, -1.000, 3.261554e+00, 99, 2, , half, 97.000, 98, 115, 101.000, 110, 116.000
7.853982e-01, NaN, NaN, NaN, -1.000, 3.241243e+00, 99, 2, , 1overf, 112.000, 114, 101, 115.000, 101, 110.000
116, 7.853982e-01, 
, , 1.402, 1, 1.640447e+00, 99, 2, , 1overf, 97.000, 98, 115, 101.000, 110, 116.000
7.853982e-01, NaN, NaN, NaN, -1.000, 3.846123e+00, 99, 2, , easy, 97.000, 98, 115, 101.000, 110, 116.000
7.853982e-01, NaN, NaN, NaN, -1.000, 2.115136e+00, 99, 2, , half, 112.000, 114, 101, 115.000, 101, 110.000
116, 7.853982e-01, , , 0.524, -1, 6.104998e+00, 99, 2, , hard, 97.000, 98, 115, 101.000, 110, 116.000
7.853982e-01, NaN, NaN, NaN, -1.000, 4.352220e+00, 99, 2, , hard, 112.000, 114, 101, 115.000, 101, 110.000
116, 7.853982e-01, , , 2.094, 1, 2.219707e+00, 99, 2, 	, easy, 112.000, 114, 101, 115.000, 101, 110.000
116, 7.853982e-01, , , 0.524, 1, 3.807990e+00, 99, 2, 
, hard, 97.000, 98, 115, 101.000, 110, 116.000
7.853982e-01, NaN, NaN, NaN, -1.000, 4.811622e+00, 99, 2, , easy, 97.000, 98, 115, 101.000, 110, 116.000
7.853982e-01, NaN, NaN, NaN, -1.000, 2.563457e+00, 99, 2, , half, 97.000, 98, 115, 101.000, 110, 116.000
7.853982e-01, NaN, NaN, NaN, -1.000, 5.789019e+00, 99, 2, , easy, 112.000, 114, 101, 115.000, 101, 110.000
116, 7.853982e-01, , , 0.524, 1, 1.207173e+00, 99, 2, , 1overf, 112.000, 114, 101, 115.000, 101, 110.000
116, 7.853982e-01, , 
, 2.020, -1, 5.862505e+00, 99, 2, , half, 112.000, 114, 101, 115.000, 101, 110.000
116, 7.853982e-01, , , 0.524, 1, 3.012419e+00, 99, 2, , easy, 112.000, 114, 101, 115.000, 101, 110.000
116, 7.853982e-01, , , 0.524, 1, 1.080861e+00, 99, 2, , 1overf, 97.000, 98, 115, 101.000, 110, 116.000
7.853982e-01, NaN, NaN, NaN, -1.000, 4.216900e+00, 99, 2, , 1overf, 97.000, 98, 115, 101.000, 110, 116.000
7.853982e-01, NaN, NaN, NaN, -1.000, 4.662917e+00, 99, 2, , hard, 112.000, 114, 101, 115.000, 101, 110.000
116, 7.853982e-01, , , 2.094, -1, 3.316360e+00, 99, 2, , 1overf, 97.000, 98, 115, 101.000, 110, 116.000
7.853982e-01, NaN, NaN, NaN, -1.000, 2.355526e+00, 99, 2, , easy, 112.000, 114, 101, 115.000, 101, 110.000
116, 7.853982e-01, , , 0.524, 1, 9.514729e-01, 99, 2, , hard, 97.000, 98, 115, 101.000, 110, 116.000
7.853982e-01, NaN, NaN, NaN, -1.000, 4.253871e+00, 99, 2, , hard, 112.000, 114, 101, 115.000, 101, 110.000
116, 7.853982e-01, , , 2.094, -1, 4.706166e+00, 99, 2, , 1overf, 112.000, 114, 101, 115.000, 101, 110.000
116, 7.853982e-01, , , 1.290, -1, 3.146513e+00, 99, 2, , half, 97.000, 98, 115, 101.000, 110, 116.000
7.853982e-01, NaN, NaN, NaN, -1.000, 7.247054e+00, 99, 2, , hard, 97.000, 98, 115, 101.000, 110, 116.000
7.853982e-01, NaN, NaN, NaN, -1.000, 2.481943e+00, 99, 2, , 1overf, 112.000, 114, 101, 115.000, 101, 110.000
116, 7.853982e-01, , 	, 0.994, -1, 3.332433e+00, 99, 2, , easy, 97.000, 98, 115, 101.000, 110, 116.000
7.853982e-01, NaN, NaN, NaN, -1.000, 2.410354e+00, 99, 2, , hard, 112.000, 114, 101, 115.000, 101, 110.000
116, 7.853982e-01, , , 2.094, -1, 5.297670e+00, 99, 2, , half, 97.000, 98, 115, 101.000, 110, 116.000
7.853982e-01, NaN, NaN, NaN, 1.000, 2.964545e+00, 99, 2, , hard, 112.000, 114, 101, 115.000, 101, 110.000
116, 7.853982e-01, , , 2.094, -1, 2.481679e+00, 99, 2,  , half, 112.000, 114, 101, 115.000, 101, 110.000
116, 7.853982e-01, 
, , 2.094, -1, 2.995137e+00, 99, 2, !, 1overf, 112.000, 114, 101, 115.000, 101, 110.000
116, 7.853982e-01, , , 0.548, 1, 1.411855e+00, 99, 2, ", half, 97.000, 98, 115, 101.000, 110, 116.000
7.853982e-01, NaN, NaN, NaN, -1.000, 1.868853e+00, 99, 2, #, half, 112.000, 114, 101, 115.000, 101, 110.000
116, 7.853982e-01, , , 0.524, 1, 8.971275e-01, 99, 2, $, 1overf, 97.000, 98, 115, 101.000, 110, 116.000
7.853982e-01, NaN, NaN, NaN, -1.000, 1.787622e+00, 99, 2, %, half, 112.000, 114, 101, 115.000, 101, 110.000
116, 7.853982e-01, , , 0.524, 1, 1.098628e+00, 99, 2, &, easy, 97.000, 98, 115, 101.000, 110, 116.000
7.853982e-01, NaN, NaN, NaN, -1.000, 3.176845e+00, 99, 2, ', easy, 112.000, 114, 101, 115.000, 101, 110.000
116, 7.853982e-01, , , 0.524, 1, 8.287433e-01, 99, 2, (, hard, 97.000, 98, 115, 101.000, 110, 116.000
7.853982e-01, NaN, NaN, NaN, -1.000, 2.342125e+00, 