person, deadline, block, trialNum, trialType, targetPresent, targTheta, targLocX, targLocY, targVar, response, rt
14, 0, 1, , half, 112.000, 114, 101, 115.000, 101, 110.000
116, 7.853982e-01, 2, , 2.094395e+00, 1.000, 2.174799e+00, 14, 0, 1, , half, 112.000, 114, 101, 115.000, 101, 110.000
116, 7.853982e-01, 22, , 5.235988e-01, 1.000, 9.048509e-01, 14, 0, 1, , half, 97.000, 98, 115, 101.000, 110, 116.000
7.853982e-01, NaN, NaN, NaN, , 3.099, 14, 0, 1, , half, 97.000, 98, 115, 101.000, 110, 116.000
7.853982e-01, NaN, NaN, NaN, , 4.456, 14, 0, 1, , half, 97.000, 98, 115, 101.000, 110, 116.000
7.853982e-01, NaN, NaN, NaN, -1.000000e+00, 7.038, 14, 0, 1, , half, 112.000, 114, 101, 115.000, 101, 110.000
116, 7.853982e-01, 18, 
, 5.235988e-01, 1.000, 8.860508e-01, 14, 0, 1, , half, 112.000, 114, 101, 115.000, 101, 110.000
116, 7.853982e-01, 14, , 2.094395e+00, 1.000, 1.986507e+00, 14, 0, 1, , half, 97.000, 98, 115, 101.000, 110, 116.000
7.853982e-01, NaN, NaN, NaN, , 1.124, 14, 0, 1, 	, half, 97.000, 98, 115, 101.000, 110, 116.000
7.853982e-01, NaN, NaN, NaN, , 1.839, 14, 0, 1, 
, half, 112.000, 114, 101, 115.000, 101, 110.000
116, 7.853982e-01, 23, 	, 2.094395e+00, 1.000, 6.857210e+00, 14, 0, 1, , half, 112.000, 114, 101, 115.000, 101, 110.000
116, 7.853982e-01, 13, , 5.235988e-01, 1.000, 7.123270e-01, 14, 0, 1, , half, 97.000, 98, 115, 101.000, 110, 116.000
7.853982e-01, NaN, NaN, NaN, , 6.433, 14, 0, 1, , half, 112.000, 114, 101, 115.000, 101, 110.000
116, 7.853982e-01, 12, , 2.094395e+00, -1.000, 8.092549e+00, 14, 0, 1, , half, 97.000, 98, 115, 101.000, 110, 116.000
7.853982e-01, NaN, NaN, NaN, , 2.199, 14, 0, 1, , half, 97.000, 98, 115, 101.000, 110, 116.000
7.853982e-01, NaN, NaN, NaN, -1.000000e+00, 7.698, 14, 0, 1, , half, 112.000, 114, 101, 115.000, 101, 110.000
116, 7.853982e-01, 12, , 5.235988e-01, 1.000, 1.134178e+00, 14, 0, 1, , half, 112.000, 114, 101, 115.000, 101, 110.000
116, 7.853982e-01, 28, , 2.094395e+00, -1.000, 7.890258e+00, 14, 0, 1, , half, 112.000, 114, 101, 115.000, 101, 110.000
116, 7.853982e-01, 10, , 5.235988e-01, 1.000, 7.887347e-01, 14, 0, 1, , half, 97.000, 98, 115, 101.000, 110, 116.000
7.853982e-01, NaN, NaN, NaN, , 6.012, 14, 0, 1, , half, 97.000, 98, 115, 101.000, 110, 116.000
7.853982e-01, NaN, NaN, NaN, -1.000000e+00, 7.183, 14, 0, 1, , half, 112.000, 114, 101, 115.000, 101, 110.000
116, 7.853982e-01, 23, , 5.235988e-01, 1.000, 9.276283e-01, 14, 0, 1, , half, 97.000, 98, 115, 101.000, 110, 116.000
7.853982e-01, NaN, NaN, NaN, -1.000000e+00, 9.233, 14, 0, 1, , half, 97.000, 98, 115, 101.000, 110, 116.000
7.853982e-01, NaN, NaN, NaN, -1.000000e+00, 6.780, 14, 0, 1, , half, 97.000, 98, 115, 101.000, 110, 116.000
7.853982e-01, NaN, NaN, NaN, -1.000000e+00, 7.772, 14, 0, 1, , half, 112.000, 114, 101, 115.000, 101, 110.000
116, 7.853982e-01, 3, , 5.235988e-01, 1.000, 8.998817e-01, 14, 0, 1, , half, 112.000, 114, 101, 115.000, 101, 110.000
116, 7.853982e-01, 5, , 5.235988e-01, 1.000, 6.712228e-01, 14, 0, 1, , half, 97.000, 98, 115, 101.000, 110, 116.000
7.853982e-01, NaN, NaN, NaN, , 8.447, 14, 0, 1, , half, 97.000, 98, 115, 101.000, 110, 116.000
7.853982e-01, NaN, NaN, NaN, , 4.178, 14, 0, 1, , half, 112.000, 114, 101, 115.000, 101, 110.000
116, 7.853982e-01, 26, 	, 5.235988e-01, 1.000, 6.573393e-01, 14, 0, 1, , half, 112.000, 114, 101, 115.000, 101, 110.000
116, 7.853982e-01, 14, , 5.235988e-01, 1.000, 9.631774e-01, 14, 0, 2, , half, 112.000, 114, 101, 115.000, 101, 110.000
116, -7.853982e-01, 24, , 2.094395e+00, 1.000, 4.277233e+00, 14, 0, 2, , half, 112.000, 114, 101, 115.000, 101, 110.000
116, -7.853982e-01, 28, , 2.094395e+00, -1.000, 7.901068e+00, 14, 0, 2, , half, 97.000, 98, 115, 101.000, 110, 116.000
-7.853982e-01, NaN, NaN, NaN, -1.000000e+00, 7.349, 14, 0, 2, , half, 97.000, 98, 115, 101.000, 110, 116.000
-7.853982e-01, NaN, NaN, NaN, -1.000000e+00, 10.820, 14, 0, 2, , half, 97.000, 98, 115, 101.000, 110, 116.000
-7.853982e-01, NaN, NaN, NaN, , 7.354, 14, 0, 2, , half, 112.000, 114, 101, 115.000, 101, 110.000
116, -7.853982e-01, 31, , 5.235988e-01, 1.000, 2.243014e+00, 14, 0, 2, , half, 97.000, 98, 115, 101.000, 110, 116.000
-7.853982e-01, NaN, NaN, NaN, -1.000000e+00, 10.304, 14, 0, 2, , half, 97.000, 98, 115, 101.000, 110, 116.000
-7.853982e-01, NaN, NaN, NaN, -1.000000e+00, 7.188, 14, 0, 2, 	, half, 97.000, 98, 115, 101.000, 110, 116.000
-7.853982e-01, NaN, NaN, NaN, -1.000000e+00, 9.148, 14, 0, 2, 
, half, 112.000, 114, 101, 115.000, 101, 110.000
116, -7.853982e-01, 6, , 5.235988e-01, 1.000, 1.648882e+00, 14, 0, 2, , half, 112.000, 114, 101, 115.000, 101, 110.000
116, -7.853982e-01, 13, , 5.235988e-01, 1.000, 1.225393e+00, 14, 0, 2, , half, 112.000, 114, 101, 115.000, 101, 110.000
116, -7.853982e-01, 25, , 2.094395e+00, -1.000, 9.288062e+00, 14, 0, 2, , half, 112.000, 114, 101, 115.000, 101, 110.000
116, -7.853982e-01, 8, , 5.235988e-01, 1.000, 7.941921e-01, 14, 0, 2, , half, 112.000, 114, 101, 115.000, 101, 110.000
116, -7.853982e-01, 2, , 2.094395e+00, 1.000, 8.026507e+00, 14, 0, 2, , half, 112.000, 114, 101, 115.000, 101, 110.000
116, -7.853982e-01, 13, , 5.235988e-01, 1.000, 9.483943e-01, 14, 0, 2, , half, 97.000, 98, 115, 101.000, 110, 116.000
-7.853982e-01, NaN, NaN, NaN, , 2.082, 14, 0, 2, , half, 97.000, 98, 115, 101.000, 110, 116.000
-7.853982e-01, NaN, NaN, NaN, -1.000000e+00, 7.455, 14, 0, 2, , half, 97.000, 98, 115, 101.000, 110, 116.000
-7.853982e-01, NaN, NaN, NaN, -1.000000e+00, 7.423, 14, 0, 2, , half, 97.000, 98, 115, 101.000, 110, 116.000
-7.853982e-01, NaN, NaN, NaN, -1.000000e+00, 7.979, 14, 0, 2, , half, 97.000, 98, 115, 101.000, 110, 116.000
-7.853982e-01, NaN, NaN, NaN, , 7.089, 14, 0, 2, , half, 112.000, 114, 101, 115.000, 101, 110.000
116, -7.853982e-01, 21, , 2.094395e+00, -1.000, 5.608426e+00, 14, 0, 2, , half, 112.000, 114, 101, 115.000, 101, 110.000
116, -7.853982e-01, 20, 
, 2.094395e+00, 1.000, 5.322914e+00, 14, 0, 2, , half, 97.000, 98, 115, 101.000, 110, 116.000
-7.853982e-01, NaN, NaN, NaN, , 1.614, 14, 0, 2, , half, 97.000, 98, 115, 101.000, 110, 116.000
-7.853982e-01, NaN, NaN, NaN, , 8.454, 14, 0, 2, , half, 112.000, 114, 101, 115.000, 101, 110.000
116, -7.853982e-01, 31, , 5.235988e-01, 1.000, 1.288175e+00, 14, 0, 2, , half, 112.000, 114, 101, 115.000, 101, 110.000
116, -7.853982e-01, 3, , 5.235988e-01, 1.000, 6.742644e-01, 14, 0, 2, , half, 97.000, 98, 115, 101.000, 110, 116.000
-7.853982e-01, NaN, NaN, NaN, , 8.565, 14, 0, 2, , half, 112.000, 114, 101, 115.000, 101, 110.000
116, -7.853982e-01, 3, , 2.094395e+00, -1.000, 8.984739e+00, 14, 0, 2, , half, 97.000, 98, 115, 101.000, 110, 116.000
-7.853982e-01, NaN, NaN, NaN, , 3.826, 14, 0, 2, , half, 112.000, 114, 101, 115.000, 101, 110.000
116, -7.853982e-01, 30, , 5.235988e-01, 1.000, 7.731971e-01, 