person, deadline, block, trialNum, trialType, targetPresent, targTheta, targLocX, targLocY, targVar, response, rt
11, 0, 1, , half, 112.000, 114, 101, 115.000, 101, 110.000
116, -7.853982e-01, 3, , 2.094395e+00, -1.000, 4.969599e+00, 11, 0, 1, , half, 112.000, 114, 101, 115.000, 101, 110.000
116, -7.853982e-01, 8, , 2.094395e+00, 1.000, 5.489630e+00, 11, 0, 1, , half, 97.000, 98, 115, 101.000, 110, 116.000
-7.853982e-01, NaN, NaN, NaN, , 9.556, 11, 0, 1, , half, 97.000, 98, 115, 101.000, 110, 116.000
-7.853982e-01, NaN, NaN, NaN, -1.000000e+00, 14.648, 11, 0, 1, , half, 112.000, 114, 101, 115.000, 101, 110.000
116, -7.853982e-01, 5, , 5.235988e-01, 1.000, 1.367741e+00, 11, 0, 1, , half, 97.000, 98, 115, 101.000, 110, 116.000
-7.853982e-01, NaN, NaN, NaN, -1.000000e+00, 12.163, 11, 0, 1, , half, 97.000, 98, 115, 101.000, 110, 116.000
-7.853982e-01, NaN, NaN, NaN, , 8.227, 11, 0, 1, , half, 97.000, 98, 115, 101.000, 110, 116.000
-7.853982e-01, NaN, NaN, NaN, , 25.320, 11, 0, 1, 	, half, 112.000, 114, 101, 115.000, 101, 110.000
116, -7.853982e-01, 11, , 2.094395e+00, -1.000, 8.684548e+00, 11, 0, 1, 
, half, 97.000, 98, 115, 101.000, 110, 116.000
-7.853982e-01, NaN, NaN, NaN, -1.000000e+00, 12.892, 11, 0, 1, , half, 97.000, 98, 115, 101.000, 110, 116.000
-7.853982e-01, NaN, NaN, NaN, -1.000000e+00, 12.710, 11, 0, 1, , half, 97.000, 98, 115, 101.000, 110, 116.000
-7.853982e-01, NaN, NaN, NaN, , 7.947, 11, 0, 1, , half, 97.000, 98, 115, 101.000, 110, 116.000
-7.853982e-01, NaN, NaN, NaN, -1.000000e+00, 15.586, 11, 0, 1, , half, 112.000, 114, 101, 115.000, 101, 110.000
116, -7.853982e-01, 7, , 5.235988e-01, 1.000, 1.052972e+00, 11, 0, 1, , half, 112.000, 114, 101, 115.000, 101, 110.000
116, -7.853982e-01, 12, , 5.235988e-01, 1.000, 1.065489e+00, 11, 0, 1, , half, 97.000, 98, 115, 101.000, 110, 116.000
-7.853982e-01, NaN, NaN, NaN, -1.000000e+00, 14.274, 11, 0, 1, , half, 112.000, 114, 101, 115.000, 101, 110.000
116, -7.853982e-01, 18, , 2.094395e+00, -1.000, 6.171660e+00, 11, 0, 1, , half, 112.000, 114, 101, 115.000, 101, 110.000
116, -7.853982e-01, 12, , 5.235988e-01, 1.000, 9.578033e-01, 11, 0, 1, , half, 97.000, 98, 115, 101.000, 110, 116.000
-7.853982e-01, NaN, NaN, NaN, , 7.113, 11, 0, 1, , half, 112.000, 114, 101, 115.000, 101, 110.000
116, -7.853982e-01, 14, , 5.235988e-01, 1.000, 1.413500e+00, 11, 0, 1, , half, 97.000, 98, 115, 101.000, 110, 116.000
-7.853982e-01, NaN, NaN, NaN, -1.000000e+00, 5.217, 11, 0, 1, , half, 112.000, 114, 101, 115.000, 101, 110.000
116, -7.853982e-01, 7, , 5.235988e-01, 1.000, 7.445070e-01, 11, 0, 1, , half, 112.000, 114, 101, 115.000, 101, 110.000
116, -7.853982e-01, 13, , 5.235988e-01, 1.000, 7.733966e-01, 11, 0, 1, , half, 97.000, 98, 115, 101.000, 110, 116.000
-7.853982e-01, NaN, NaN, NaN, -1.000000e+00, 6.269, 11, 0, 1, , half, 97.000, 98, 115, 101.000, 110, 116.000
-7.853982e-01, NaN, NaN, NaN, -1.000000e+00, 7.477, 11, 0, 1, , half, 97.000, 98, 115, 101.000, 110, 116.000
-7.853982e-01, NaN, NaN, NaN, -1.000000e+00, 6.324, 11, 0, 1, , half, 112.000, 114, 101, 115.000, 101, 110.000
116, -7.853982e-01, 9, , 2.094395e+00, -1.000, 9.193697e+00, 11, 0, 1, , half, 112.000, 114, 101, 115.000, 101, 110.000
116, -7.853982e-01, 10, , 2.094395e+00, 1.000, 1.328738e+01, 11, 0, 1, , half, 112.000, 114, 101, 115.000, 101, 110.000
116, -7.853982e-01, 13, , 5.235988e-01, 1.000, 1.189154e+00, 11, 0, 1, , half, 112.000, 114, 101, 115.000, 101, 110.000
116, -7.853982e-01, 24, , 2.094395e+00, -1.000, 8.368178e+00, 11, 0, 2, , half, 97.000, 98, 115, 101.000, 110, 116.000
7.853982e-01, NaN, NaN, NaN, -1.000000e+00, 4.101, 11, 0, 2, , half, 97.000, 98, 115, 101.000, 110, 116.000
7.853982e-01, NaN, NaN, NaN, , 10.941, 11, 0, 2, , half, 112.000, 114, 101, 115.000, 101, 110.000
116, 7.853982e-01, 3, 	, 2.094395e+00, 1.000, 8.125772e+00, 11, 0, 2, , half, 112.000, 114, 101, 115.000, 101, 110.000
116, 7.853982e-01, 8, , 2.094395e+00, -1.000, 8.939190e+00, 11, 0, 2, , half, 112.000, 114, 101, 115.000, 101, 110.000
116, 7.853982e-01, 2, , 5.235988e-01, 1.000, 1.084179e+00, 11, 0, 2, , half, 97.000, 98, 115, 101.000, 110, 116.000
7.853982e-01, NaN, NaN, NaN, -1.000000e+00, 5.419, 11, 0, 2, , half, 112.000, 114, 101, 115.000, 101, 110.000
116, 7.853982e-01, 15, , 2.094395e+00, -1.000, 6.539281e+00, 11, 0, 2, , half, 112.000, 114, 101, 115.000, 101, 110.000
116, 7.853982e-01, 11, , 5.235988e-01, 1.000, 7.891312e-01, 11, 0, 2, 	, half, 97.000, 98, 115, 101.000, 110, 116.000
7.853982e-01, NaN, NaN, NaN, , 5.186, 11, 0, 2, 
, half, 112.000, 114, 101, 115.000, 101, 110.000
116, 7.853982e-01, 7, 
, 2.094395e+00, 1.000, 3.415251e+00, 11, 0, 2, , half, 112.000, 114, 101, 115.000, 101, 110.000
116, 7.853982e-01, 22, , 2.094395e+00, 1.000, 4.335091e+00, 11, 0, 2, , half, 97.000, 98, 115, 101.000, 110, 116.000
7.853982e-01, NaN, NaN, NaN, -1.000000e+00, 8.892, 11, 0, 2, , half, 112.000, 114, 101, 115.000, 101, 110.000
116, 7.853982e-01, 21, , 2.094395e+00, 1.000, 3.896118e+00, 11, 0, 2, , half, 97.000, 98, 115, 101.000, 110, 116.000
7.853982e-01, NaN, NaN, NaN, , 4.409, 11, 0, 2, , half, 112.000, 114, 101, 115.000, 101, 110.000
116, 7.853982e-01, 7, 	, 2.094395e+00, 1.000, 1.849566e+00, 11, 0, 2, , half, 97.000, 98, 115, 101.000, 110, 116.000
7.853982e-01, NaN, NaN, NaN, , 3.293, 11, 0, 2, , half, 112.000, 114, 101, 115.000, 101, 110.000
116, 7.853982e-01, 31, , 2.094395e+00, 1.000, 3.132599e+00, 11, 0, 2, , half, 97.000, 98, 115, 101.000, 110, 116.000
7.853982e-01, NaN, NaN, NaN, -1.000000e+00, 3.796, 11, 0, 2, , half, 97.000, 98, 115, 101.000, 110, 116.000
7.853982e-01, NaN, NaN, NaN, , 5.679, 11, 0, 2, , half, 112.000, 114, 101, 115.000, 101, 110.000
116, 7.853982e-01, 24, , 2.094395e+00, 1.000, 2.484525e+00, 11, 0, 2, , half, 97.000, 98, 115, 101.000, 110, 116.000
7.853982e-01, NaN, NaN, NaN, , 2.345, 11, 0, 2, , half, 97.000, 98, 115, 101.000, 110, 116.000
7.853982e-01, NaN, NaN, NaN, , 3.823, 11, 0, 2, , half, 97.000, 98, 115, 101.000, 110, 116.000
7.853982e-01, NaN, NaN, NaN, , 1.662, 11, 0, 2, , half, 112.000, 114, 101, 115.000, 101, 110.000
116, 7.853982e-01, 26, , 5.235988e-01, 1.000, 1.592203e+00, 11, 0, 2, , half, 97.000, 98, 115, 101.000, 110, 116.000
7.853982e-01, NaN, NaN, NaN, , 6.159, 11, 0, 2, , half, 112.000, 114, 101, 115.000, 101, 110.000
116, 7.853982e-01, 6, , 5.235988e-01, 1.000, 8.101977e-01, 11, 0, 2, , half, 97.000, 98, 115, 101.000, 110, 116.000
7.853982e-01, NaN, NaN, NaN, , 5.994, 11, 0, 2, , half, 97.000, 98, 115, 101.000, 110, 116.000
7.853982e-01, NaN, NaN, NaN, , 5.016, 11, 0, 2, , half, 112.000, 114, 101, 115.000, 101, 110.000
116, 7.853982e-01, 23, , 2.094395e+00, -1.000, 3.305674e+00, 11, 0, 2, , half, 112.000, 114, 101, 115.000, 101, 110.000
116, 7.853982e-01, 3, , 2.094395e+00, 1.000, 1.943145e+00, 