person, deadline, block, trialNum, trialType, targetPresent, targTheta, targLocX, targLocY, targVar, response, rt
200, 0, 1, , half, 112.000, 114, 101, 115.000, 101, 110.000
116, -7.853982e-01, 10, , 2.094395e+00, -1.000, 2.928561e+00, 200, 0, 1, , half, 97.000, 98, 115, 101.000, 110, 116.000
-7.853982e-01, NaN, NaN, NaN, -1.000000e+00, 4.512, 200, 0, 1, , half, 97.000, 98, 115, 101.000, 110, 116.000
-7.853982e-01, NaN, NaN, NaN, -1.000000e+00, 2.090, 200, 0, 1, , half, 112.000, 114, 101, 115.000, 101, 110.000
116, -7.853982e-01, 18, 
, 2.094395e+00, -1.000, 2.204023e+00, 200, 0, 1, , half, 97.000, 98, 115, 101.000, 110, 116.000
-7.853982e-01, NaN, NaN, NaN, -1.000000e+00, 4.237, 200, 0, 1, , half, 112.000, 114, 101, 115.000, 101, 110.000
116, -7.853982e-01, 20, , 5.235988e-01, 1.000, 1.083043e+00, 200, 0, 1, , half, 112.000, 114, 101, 115.000, 101, 110.000
116, -7.853982e-01, 28, , 2.094395e+00, -1.000, 3.628688e+00, 200, 0, 1, , half, 97.000, 98, 115, 101.000, 110, 116.000
-7.853982e-01, NaN, NaN, NaN, -1.000000e+00, 4.169, 200, 0, 1, 	, half, 112.000, 114, 101, 115.000, 101, 110.000
116, -7.853982e-01, 2, , 5.235988e-01, 1.000, 1.396528e+00, 200, 0, 1, 
, half, 97.000, 98, 115, 101.000, 110, 116.000
-7.853982e-01, NaN, NaN, NaN, -1.000000e+00, 9.101, 200, 0, 1, , half, 112.000, 114, 101, 115.000, 101, 110.000
116, -7.853982e-01, 3, , 2.094395e+00, -1.000, 3.342893e+00, 200, 0, 1, , half, 97.000, 98, 115, 101.000, 110, 116.000
-7.853982e-01, NaN, NaN, NaN, , 2.210, 200, 0, 1, , half, 97.000, 98, 115, 101.000, 110, 116.000
-7.853982e-01, NaN, NaN, NaN, -1.000000e+00, 3.451, 200, 0, 1, , half, 112.000, 114, 101, 115.000, 101, 110.000
116, -7.853982e-01, 8, , 5.235988e-01, 1.000, 2.638450e+00, 200, 0, 1, , half, 97.000, 98, 115, 101.000, 110, 116.000
-7.853982e-01, NaN, NaN, NaN, -1.000000e+00, 2.651, 200, 0, 1, , half, 97.000, 98, 115, 101.000, 110, 116.000
-7.853982e-01, NaN, NaN, NaN, -1.000000e+00, 3.586, 200, 0, 1, , half, 97.000, 98, 115, 101.000, 110, 116.000
-7.853982e-01, NaN, NaN, NaN, -1.000000e+00, 3.261, 200, 0, 1, , half, 97.000, 98, 115, 101.000, 110, 116.000
-7.853982e-01, NaN, NaN, NaN, -1.000000e+00, 1.714, 200, 0, 1, , half, 112.000, 114, 101, 115.000, 101, 110.000
116, -7.853982e-01, 5, , 5.235988e-01, 1.000, 9.651723e-01, 200, 0, 1, , half, 112.000, 114, 101, 115.000, 101, 110.000
116, -7.853982e-01, 10, , 5.235988e-01, 1.000, 9.115042e-01, 200, 0, 1, , half, 97.000, 98, 115, 101.000, 110, 116.000
-7.853982e-01, NaN, NaN, NaN, -1.000000e+00, 1.019, 200, 0, 1, , half, 112.000, 114, 101, 115.000, 101, 110.000
116, -7.853982e-01, 8, , 5.235988e-01, 1.000, 8.896694e-01, 200, 0, 1, , half, 112.000, 114, 101, 115.000, 101, 110.000
116, -7.853982e-01, 10, , 5.235988e-01, 1.000, 8.560363e-01, 200, 0, 1, , half, 97.000, 98, 115, 101.000, 110, 116.000
-7.853982e-01, NaN, NaN, NaN, -1.000000e+00, 1.075, 200, 0, 1, , half, 112.000, 114, 101, 115.000, 101, 110.000
116, -7.853982e-01, 9, , 5.235988e-01, 1.000, 7.777321e-01, 200, 0, 1, , half, 112.000, 114, 101, 115.000, 101, 110.000
116, -7.853982e-01, 19, , 2.094395e+00, -1.000, 1.858161e+00, 200, 0, 1, , half, 97.000, 98, 115, 101.000, 110, 116.000
-7.853982e-01, NaN, NaN, NaN, -1.000000e+00, 2.565, 200, 0, 1, , half, 97.000, 98, 115, 101.000, 110, 116.000
-7.853982e-01, NaN, NaN, NaN, -1.000000e+00, 2.526, 200, 0, 1, , half, 112.000, 114, 101, 115.000, 101, 110.000
116, -7.853982e-01, 4, , 2.094395e+00, -1.000, 1.335258e+00, 200, 0, 1, , half, 112.000, 114, 101, 115.000, 101, 110.000
116, -7.853982e-01, 14, , 2.094395e+00, -1.000, 1.319248e+00, 200, 0, 2, , half, 97.000, 98, 115, 101.000, 110, 116.000
7.853982e-01, NaN, NaN, NaN, -1.000000e+00, 1.791, 200, 0, 2, , half, 97.000, 98, 115, 101.000, 110, 116.000
7.853982e-01, NaN, NaN, NaN, -1.000000e+00, 3.127, 200, 0, 2, , half, 112.000, 114, 101, 115.000, 101, 110.000
116, 7.853982e-01, 21, , 2.094395e+00, -1.000, 2.755635e+00, 200, 0, 2, , half, 112.000, 114, 101, 115.000, 101, 110.000
116, 7.853982e-01, 5, , 5.235988e-01, 1.000, 1.204281e+00, 200, 0, 2, , half, 112.000, 114, 101, 115.000, 101, 110.000
116, 7.853982e-01, 2, , 2.094395e+00, -1.000, 2.199536e+00, 200, 0, 2, , half, 97.000, 98, 115, 101.000, 110, 116.000
7.853982e-01, NaN, NaN, NaN, -1.000000e+00, 4.359, 200, 0, 2, , half, 97.000, 98, 115, 101.000, 110, 116.000
7.853982e-01, NaN, NaN, NaN, -1.000000e+00, 5.557, 200, 0, 2, , half, 97.000, 98, 115, 101.000, 110, 116.000
7.853982e-01, NaN, NaN, NaN, -1.000000e+00, 4.226, 200, 0, 2, 	, half, 112.000, 114, 101, 115.000, 101, 110.000
116, 7.853982e-01, 15, , 2.094395e+00, -1.000, 3.754303e+00, 200, 0, 2, 
, half, 112.000, 114, 101, 115.000, 101, 110.000
116, 7.853982e-01, 25, , 5.235988e-01, 1.000, 9.517365e-01, 200, 0, 2, , half, 97.000, 98, 115, 101.000, 110, 116.000
7.853982e-01, NaN, NaN, NaN, , 3.388, 200, 0, 2, , half, 97.000, 98, 115, 101.000, 110, 116.000
7.853982e-01, NaN, NaN, NaN, , 6.074, 200, 0, 2, , half, 112.000, 114, 101, 115.000, 101, 110.000
116, 7.853982e-01, 20, , 5.235988e-01, 1.000, 1.074522e+00, 200, 0, 2, , half, 112.000, 114, 101, 115.000, 101, 110.000
116, 7.853982e-01, 20, , 2.094395e+00, -1.000, 1.226916e+00, 200, 0, 2, , half, 97.000, 98, 115, 101.000, 110, 116.000
7.853982e-01, NaN, NaN, NaN, , 2.674, 200, 0, 2, , half, 112.000, 114, 101, 115.000, 101, 110.000
116, 7.853982e-01, 23, , 2.094395e+00, -1.000, 2.469985e+00, 200, 0, 2, , half, 97.000, 98, 115, 101.000, 110, 116.000
7.853982e-01, NaN, NaN, NaN, -1.000000e+00, 4.548, 200, 0, 2, , half, 97.000, 98, 115, 101.000, 110, 116.000
7.853982e-01, NaN, NaN, NaN, -1.000000e+00, 2.712, 200, 0, 2, , half, 97.000, 98, 115, 101.000, 110, 116.000
7.853982e-01, NaN, NaN, NaN, -1.000000e+00, 4.824, 200, 0, 2, , half, 97.000, 98, 115, 101.000, 110, 116.000
7.853982e-01, NaN, NaN, NaN, -1.000000e+00, 4.340, 200, 0, 2, , half, 112.000, 114, 101, 115.000, 101, 110.000
116, 7.853982e-01, 2, , 2.094395e+00, -1.000, 3.355118e+00, 200, 0, 2, , half, 112.000, 114, 101, 115.000, 101, 110.000
116, 7.853982e-01, 6, , 5.235988e-01, 1.000, 1.002046e+00, 200, 0, 2, , half, 112.000, 114, 101, 115.000, 101, 110.000
116, 7.853982e-01, 6, , 2.094395e+00, -1.000, 5.025399e+00, 200, 0, 2, , half, 97.000, 98, 115, 101.000, 110, 116.000
7.853982e-01, NaN, NaN, NaN, -1.000000e+00, 1.407, 200, 0, 2, , half, 112.000, 114, 101, 115.000, 101, 110.000
116, 7.853982e-01, 21, , 5.235988e-01, 1.000, 8.860403e-01, 200, 0, 2, , half, 112.000, 114, 101, 115.000, 101, 110.000
116, 7.853982e-01, 27, 	, 2.094395e+00, -1.000, 1.080199e+00, 200, 0, 2, , half, 97.000, 98, 115, 101.000, 110, 116.000
7.853982e-01, NaN, NaN, NaN, , 4.854, 200, 0, 2, , half, 112.000, 114, 101, 115.000, 101, 110.000
116, 7.853982e-01, 27, , 2.094395e+00, -1.000, 1.624083e+00, 200, 0, 2, , half, 112.000, 114, 101, 115.000, 101, 110.000
116, 7.853982e-01, 4, , 5.235988e-01, 1.000, 9.170500e-01, 200, 0, 2, , half, 97.000, 98, 115, 101.000, 110, 116.000
7.853982e-01, NaN, NaN, NaN, -1.000000e+00, 5.298, 