person, block, trialNum, trialType, targetPresent, targTheta, targLocX, targLocY, targVar, response, rt
98, 1, , hard, 97.000, 98, 115, 101.000, 110, 116.000
-7.853982e-01, NaN, NaN, NaN, -1.000, 1.719617e+01, 98, 1, , easy, 112.000, 114, 101, 115.000, 101, 110.000
116, -7.853982e-01, , , 0.524, -1, 8.741225e-01, 98, 1, , hard, 112.000, 114, 101, 115.000, 101, 110.000
116, -7.853982e-01, , , 2.094, -1, 1.683211e+01, 98, 1, , hard, 97.000, 98, 115, 101.000, 110, 116.000
-7.853982e-01, NaN, NaN, NaN, -1.000, 1.973559e+01, 98, 1, , half, 97.000, 98, 115, 101.000, 110, 116.000
-7.853982e-01, NaN, NaN, NaN, -1.000, 1.614955e+01, 98, 1, , half, 97.000, 98, 115, 101.000, 110, 116.000
-7.853982e-01, NaN, NaN, NaN, -1.000, 1.995472e+01, 98, 1, , hard, 97.000, 98, 115, 101.000, 110, 116.000
-7.853982e-01, NaN, NaN, NaN, -1.000, 1.674927e+01, 98, 1, , half, 112.000, 114, 101, 115.000, 101, 110.000
116, -7.853982e-01, , , 0.524, 1, 1.338560e+00, 98, 1, 	, 1overf, 112.000, 114, 101, 115.000, 101, 110.000
116, -7.853982e-01, , , 1.785, -1, 2.202469e+01, 98, 1, 
, hard, 112.000, 114, 101, 115.000, 101, 110.000
116, -7.853982e-01, , , 2.094, -1, 2.233238e+01, 98, 1, , easy, 112.000, 114, 101, 115.000, 101, 110.000
116, -7.853982e-01, 
, , 0.524, 1, 1.223476e+00, 98, 1, , easy, 112.000, 114, 101, 115.000, 101, 110.000
116, -7.853982e-01, , , 0.524, 1, 9.159725e-01, 98, 1, , hard, 112.000, 114, 101, 115.000, 101, 110.000
116, -7.853982e-01, , 	, 2.094, -1, 1.710495e+01, 98, 1, , easy, 112.000, 114, 101, 115.000, 101, 110.000
116, -7.853982e-01, , , 0.524, 1, 1.091290e+00, 98, 1, , easy, 112.000, 114, 101, 115.000, 101, 110.000
116, -7.853982e-01, , , 0.524, 1, 8.124322e-01, 98, 1, , half, 112.000, 114, 101, 115.000, 101, 110.000
116, -7.853982e-01, , , 0.524, 1, 1.150255e+00, 98, 1, , 1overf, 112.000, 114, 101, 115.000, 101, 110.000
116, -7.853982e-01, , , 0.895, 1, 1.119478e+01, 98, 1, , 1overf, 97.000, 98, 115, 101.000, 110, 116.000
-7.853982e-01, NaN, NaN, NaN, -1.000, 2.050623e+01, 98, 1, , hard, 112.000, 114, 101, 115.000, 101, 110.000
116, -7.853982e-01, , , 2.094, 1, 9.208018e+00, 98, 1, , 1overf, 97.000, 98, 115, 101.000, 110, 116.000
-7.853982e-01, NaN, NaN, NaN, -1.000, 1.547434e+01, 98, 1, , half, 97.000, 98, 115, 101.000, 110, 116.000
-7.853982e-01, NaN, NaN, NaN, -1.000, 1.372998e+01, 98, 1, , easy, 97.000, 98, 115, 101.000, 110, 116.000
-7.853982e-01, NaN, NaN, NaN, -1.000, 3.370360e+00, 98, 1, , half, 97.000, 98, 115, 101.000, 110, 116.000
-7.853982e-01, NaN, NaN, NaN, -1.000, 1.359773e+01, 98, 1, , easy, 97.000, 98, 115, 101.000, 110, 116.000
-7.853982e-01, NaN, NaN, NaN, -1.000, 2.088666e+00, 98, 1, , 1overf, 112.000, 114, 101, 115.000, 101, 110.000
116, -7.853982e-01, , , 0.796, 1, 6.110608e+00, 98, 1, , hard, 97.000, 98, 115, 101.000, 110, 116.000
-7.853982e-01, NaN, NaN, NaN, -1.000, 1.906131e+01, 98, 1, , 1overf, 112.000, 114, 101, 115.000, 101, 110.000
116, -7.853982e-01, , , 1.501, -1, 1.103278e+01, 98, 1, , 1overf, 97.000, 98, 115, 101.000, 110, 116.000
-7.853982e-01, NaN, NaN, NaN, -1.000, 1.680531e+01, 98, 1, , hard, 112.000, 114, 101, 115.000, 101, 110.000
116, -7.853982e-01, 
, , 2.094, -1, 1.153597e+01, 98, 1, , 1overf, 97.000, 98, 115, 101.000, 110, 116.000
-7.853982e-01, NaN, NaN, NaN, -1.000, 1.470552e+01, 98, 1, , easy, 97.000, 98, 115, 101.000, 110, 116.000
-7.853982e-01, NaN, NaN, NaN, -1.000, 1.918798e+00, 98, 1,  , half, 112.000, 114, 101, 115.000, 101, 110.000
116, -7.853982e-01, , , 0.524, 1, 1.052732e+00, 98, 1, !, easy, 97.000, 98, 115, 101.000, 110, 116.000
-7.853982e-01, NaN, NaN, NaN, -1.000, 2.381303e+00, 98, 1, ", easy, 97.000, 98, 115, 101.000, 110, 116.000
-7.853982e-01, NaN, NaN, NaN, -1.000, 2.672206e+00, 98, 1, #, half, 112.000, 114, 101, 115.000, 101, 110.000
116, -7.853982e-01, , , 0.524, 1, 7.769251e-01, 98, 1, $, 1overf, 112.000, 114, 101, 115.000, 101, 110.000
116, -7.853982e-01, , , 1.043, -1, 8.161106e+00, 98, 1, %, half, 97.000, 98, 115, 101.000, 110, 116.000
-7.853982e-01, NaN, NaN, NaN, -1.000, 1.339443e+01, 98, 1, &, hard, 97.000, 98, 115, 101.000, 110, 116.000
-7.853982e-01, NaN, NaN, NaN, -1.000, 1.213496e+01, 98, 1, ', 1overf, 97.000, 98, 115, 101.000, 110, 116.000
-7.853982e-01, NaN, NaN, NaN, -1.000, 1.000703e+01, 98, 1, (, half, 112.000, 114, 101, 115.000, 101, 110.000
116, -7.853982e-01, , , 2.094, -1, 1.216454e+01, 